time,gFx,gFy,gFz,ax,ay,az,wx,wy,wz,Azimuth,Pitch,Roll,Activity
2025-11-21 14:33:00.075457+00:00,0.0679,0.3072,0.9688,0.0294,-0.0511,0.0048,-0.0029,-0.1549,-0.0644,190.9656,-18.2982,4.3326,Sit
2025-11-21 14:33:00.175451+00:00,0.0479,0.3047,0.9503,-0.1765,0.0722,-0.1211,-0.0127,-0.0522,-0.0547,191.7872,-17.7291,3.7193,Sit
2025-11-21 14:33:00.275843+00:00,0.0474,0.2984,0.9869,-0.0571,0.0331,0.2149,-0.0493,0.0015,0.0663,192.3176,-17.1016,3.1357,Sit
2025-11-21 14:33:00.376200+00:00,0.0371,0.292,0.9459,-0.0882,0.0179,-0.0914,-0.0823,0.0101,-0.0131,191.9264,-17.2526,3.0546,Sit
2025-11-21 14:33:00.476366+00:00,0.0625,0.2954,0.9386,0.132,0.0565,-0.0936,-0.0127,-0.0021,-0.029,191.9371,-17.2955,3.0427,Sit
2025-11-21 14:33:00.576563+00:00,0.0596,0.2979,0.9332,0.1013,-0.0081,-0.0842,0.024,0.0247,-0.0034,191.8107,-17.35,3.0231,Sit
2025-11-21 14:33:00.676797+00:00,0.0591,0.3023,0.9454,0.0743,0.0221,0.1379,0.0814,0.1542,0.0076,191.8787,-17.4123,2.8607,Sit
2025-11-21 14:33:00.776973+00:00,0.023,0.2891,0.9576,-0.2197,-0.1125,0.1308,-0.0224,0.0602,-0.0192,192.1836,-17.6519,2.6578,Sit
2025-11-21 14:33:00.877063+00:00,0.0205,0.2901,0.9298,-0.1774,-0.1182,-0.0891,0.0533,-0.0571,-0.0009,192.3986,-17.6244,2.4327,Sit
2025-11-21 14:33:00.977240+00:00,0.0552,0.292,0.9508,0.1198,0.0431,0.0312,-0.0518,-0.1891,-0.0987,192.341,-17.5935,2.8399,Sit
2025-11-21 14:33:01.077594+00:00,0.0972,0.315,0.9098,0.3158,0.1504,-0.265,0.035,-0.2746,-0.2538,192.9266,-17.8037,4.0223,Sit
2025-11-21 14:33:01.177707+00:00,0.1235,0.3286,0.9986,0.2296,0.0612,0.6712,0.1962,-0.1121,-0.2428,194.5686,-18.3879,5.4982,Sit
2025-11-21 14:33:01.278057+00:00,0.1436,0.1875,1.0318,0.9887,-1.2033,0.7361,0.0826,0.0137,-1.2727,197.7876,-19.7461,3.8656,Sit
2025-11-21 14:33:01.378188+00:00,-0.879,0.5367,0.4537,-6.1491,0.2704,-9.1404,4.1717,-2.4994,0.5843,204.9153,-29.0263,-9.0604,Sit
2025-11-21 14:33:01.478640+00:00,0.0518,0.6212,0.6583,0.7672,0.1833,-0.9856,-2.417,1.58,0.2569,201.7279,-38.7575,2.5997,Sit
2025-11-21 14:33:01.579062+00:00,-0.1182,0.1651,0.5635,-1.1922,-1.9635,-3.1814,-1.7634,-1.3509,2.1554,196.2831,-23.7875,-0.7832,Sit
2025-11-21 14:33:01.678595+00:00,-0.1568,0.1528,0.8429,-0.2409,-0.5881,-0.1596,-1.1037,3.3649,-0.0302,184.7198,-16.6534,-3.1311,Sit
2025-11-21 14:33:01.778658+00:00,-0.2544,0.1724,0.9332,-1.5774,-1.582,0.5328,2.1718,-1.1481,2.533,180.2115,-17.8876,-8.3032,Sit
2025-11-21 14:33:01.879058+00:00,-0.082,0.4063,1.0177,1.4265,-0.376,1.3998,0.5774,3.7473,0.0345,167.9703,-25.973,-7.2497,Sit
2025-11-21 14:33:01.979265+00:00,-0.1655,0.7052,0.7164,2.4115,1.153,-1.385,-0.5307,2.0834,0.9203,162.7495,-32.2216,-24.6138,Sit
2025-11-21 14:33:02.079607+00:00,-0.4429,0.5127,0.5503,-0.1987,0.0128,-0.8808,-0.1972,0.4523,0.2776,159.5223,-31.574,-31.6493,Sit
2025-11-21 14:33:02.179836+00:00,-0.523,0.4805,0.6133,-0.4672,-0.4017,-0.1907,0.3282,0.963,0.4707,157.839,-32.7735,-33.8966,Sit
2025-11-21 14:33:02.279887+00:00,-0.5059,0.7071,0.877,0.3619,1.0439,1.1779,0.454,-0.5214,-0.0718,154.8032,-36.1616,-34.3185,Sit
2025-11-21 14:33:02.380752+00:00,-0.586,0.6578,0.8077,-0.6809,0.2913,2.3441,1.8517,1.42,-1.0137,161.0305,-40.1328,-39.7023,Sit
2025-11-21 14:33:02.480374+00:00,-0.6241,0.6397,0.4102,-0.2922,-0.6701,0.2985,2.013,1.0999,0.2886,166.3915,-45.3996,-56.2669,Sit
2025-11-21 14:33:02.580736+00:00,-0.4415,0.7457,-0.2066,2.0283,-0.8143,-2.8118,2.1095,1.084,0.2947,169.2573,-53.8177,-35.6608,Sit
2025-11-21 14:33:02.680979+00:00,-0.417,0.8477,-0.2041,1.4211,0.4979,-1.2722,0.3306,1.3638,-0.4823,168.7458,-126.5835,-36.4038,Sit
2025-11-21 14:33:02.781081+00:00,-0.4165,0.8219,-0.2329,1.381,0.34,-0.4636,0.5945,1.387,0.015,159.8782,-128.1809,-37.0401,Sit
2025-11-21 14:33:02.881287+00:00,-0.4009,0.9122,-0.5933,1.2985,1.5629,-2.4174,1.6354,1.5421,-0.2416,148.3818,-131.3281,-58.689,Sit
2025-11-21 14:33:02.981352+00:00,-0.2427,0.3575,-0.7423,2.1106,-2.3484,-1.2453,1.7307,1.514,-0.6435,133.6366,-139.2227,-40.8496,Sit
2025-11-21 14:33:03.081724+00:00,-0.2437,0.6153,-0.7984,1.465,-0.4941,-1.6266,-1.3187,0.4157,0.5916,119.0258,-143.0079,-31.8109,Sit
2025-11-21 14:33:03.181921+00:00,-0.3589,0.9562,-0.3575,-0.4632,2.5112,1.6707,-0.4659,1.3772,0.4792,111.1029,-134.7233,-29.3576,Sit
2025-11-21 14:33:03.282112+00:00,-0.0811,0.793,-0.7125,1.3853,1.5595,-0.5073,-0.1263,1.8121,-1.4511,92.9001,-136.9139,-21.8311,Sit
2025-11-21 14:33:03.384476+00:00,0.0117,0.334,-1.0885,2.1286,-2.5672,-3.1075,-0.0176,0.522,0.3571,75.669,-141.8417,-16.1174,Sit
2025-11-21 14:33:03.482431+00:00,-0.3516,0.8844,-0.6959,-2.4614,1.1145,-1.083,-2.2729,-0.7511,1.4859,77.9455,-131.1687,-18.2969,Sit
2025-11-21 14:33:03.582760+00:00,0.0205,0.9918,-0.2388,0.9984,1.4286,1.4343,-2.3865,-1.7553,2.1163,78.5996,-117.4753,-5.8218,Sit
2025-11-21 14:33:03.683026+00:00,0.1582,0.9239,-0.0708,1.3363,-0.2441,1.7208,-0.6773,-0.1903,0.3155,77.6969,-104.5076,-0.2233,Sit
2025-11-21 14:33:03.783105+00:00,0.0171,0.9068,-0.2954,-0.0346,-0.7361,-0.8559,-0.8129,-0.3186,-0.0742,76.4906,-102.4271,0.966,Sit
2025-11-21 14:33:03.883198+00:00,-0.0591,1.1676,-0.0923,-0.6308,2.1159,0.5566,0.2195,-0.5678,0.5354,84.1195,-98.2859,-1.7095,Sit
2025-11-21 14:33:03.983593+00:00,0.0425,0.7227,-0.1226,0.164,-1.8722,0.1974,-0.13,0.5586,-0.1817,81.3026,-100.275,0.6124,Sit
2025-11-21 14:33:04.083859999+00:00,-0.0576,0.5396,-0.0264,-2.1932,-4.1698,0.687,-0.3902,0.599,-0.1145,83.677,-99.4203,-1.8928,Sit
2025-11-21 14:33:04.183867+00:00,-0.0142,0.7081,-0.0024,-0.6902,-1.8901,2.6764,1.7442,1.6142,2.2739,77.0327,-105.7189,2.6182,Sit
2025-11-21 14:33:04.284141+00:00,0.3179,0.9693,-0.504,2.7737,3.4842,-3.1722,-0.4403,-1.2581,-0.7205,47.8753,-121.2638,19.7071,Sit
2025-11-21 14:33:04.387850+00:00,0.2964,0.7901,-0.4849,0.182,-0.3812,-1.2234,-0.3425,0.5195,-0.1109,45.7916,-120.4714,19.4342,Sit
2025-11-21 14:33:04.484967+00:00,0.3282,0.835,-0.3887,0.2577,-0.1477,-0.0443,0.013,0.1335,-0.0449,43.6215,-119.8638,19.9147,Sit
2025-11-21 14:33:04.585218+00:00,0.3252,0.859,-0.3741,0.1071,0.0009,-0.0013,-0.097,-0.0168,0.0516,43.1053,-119.6776,20.0069,Sit
2025-11-21 14:33:04.685489+00:00,0.2891,0.8404,-0.357,-0.2344,-0.2147,0.1914,-0.053,-0.8647,0.208,44.6973,-119.6309,20.0162,Sit
2025-11-21 14:33:04.785631+00:00,0.2901,0.8111,-0.4581,0.1099,-0.287,-0.1637,0.3428,-2.4908,0.3424,57.4057,-121.1778,18.066,Sit
2025-11-21 14:33:04.885787+00:00,0.2525,0.7359,-0.6749,0.7637,-0.6943,-1.0742,0.6642,-2.9209,0.0418,82.5164,-125.3859,12.2777,Sit
2025-11-21 14:33:04.986042+00:00,-0.0713,0.9088,-0.7208,0.0177,1.5115,-0.1942,1.6623,-3.7272,-0.139,125.3721,-131.1082,-4.4697,Sit
2025-11-21 14:33:05.086123+00:00,-0.0947,0.7164,-0.7652,0.6321,-0.1358,-0.3709,-0.1898,0.4389,0.1604,149.4919,-136.3516,-14.7286,Sit
2025-11-21 14:33:05.186323+00:00,-0.1651,0.6817,-0.6353,0.0276,0.044,0.4779,0.2182,0.0846,-0.1231,146.9789,-136.2125,-13.8079,Sit
2025-11-21 14:33:05.286700+00:00,-0.1455,0.6265,-0.9303,0.1827,-0.2625,-1.9805,0.3587,-0.0327,-0.0449,144.9384,-138.7159,-12.6485,Sit
2025-11-21 14:33:05.386813+00:00,-0.2017,0.6622,-0.7559,-0.4732,0.0685,-0.2344,-0.0115,0.0199,0.0052,143.4874,-139.2701,-11.9151,Sit
2025-11-21 14:33:05.487098+00:00,-0.106,0.6876,-0.8829,0.4908,0.7297,-1.2124,-0.0176,0.1457,0.0883,142.7935,-139.3205,-11.4265,Sit
2025-11-21 14:33:05.587417+00:00,-0.1035,0.6549,-0.7315,0.4677,-0.1273,0.0116,0.1461,-0.3051,0.0785,142.9948,-138.7526,-11.3081,Sit
2025-11-21 14:33:05.687361+00:00,-0.1421,0.6617,-0.7828,0.0432,0.0696,-0.5448,-0.053,0.0565,0.0602,144.0304,-139.0683,-11.502,Sit
2025-11-21 14:33:05.787356+00:00,-0.1402,0.6495,-0.7457,0.0105,-0.1426,-0.0603,-0.0713,0.1762,0.0858,142.265,-138.6988,-10.408,Sit
2025-11-21 14:33:05.887663+00:00,-0.1338,0.671,-0.8067,-0.3277,0.0018,-0.6026,-0.1373,0.3852,0.2068,138.4794,-138.31,-8.22,Sit
2025-11-21 14:33:05.987818+00:00,-0.0151,0.6739,-0.7511,0.4574,-0.1897,-0.1689,-0.2082,0.2691,0.2019,132.455,-137.1211,-4.5412,Sit
2025-11-21 14:33:06.088081+00:00,-0.0317,0.69,-0.7144,0.1608,-0.0413,0.1289,0.0166,-0.0095,0.1347,128.9837,-136.4525,-2.1901,Sit
2025-11-21 14:33:06.188213+00:00,-0.0801,0.6993,-0.7491,-0.4144,0.0252,-0.1881,-0.0005,-0.1133,-0.0266,130.8365,-136.4197,-2.9464,Sit
2025-11-21 14:33:06.288449+00:00,0.0303,0.6944,-0.7408,0.7254,0.0027,-0.0756,0.0325,-0.0205,-0.0852,131.7365,-136.5296,-3.451,Sit
2025-11-21 14:33:06.389291+00:00,-0.023,0.6959,-0.7486,0.2162,0.0903,-0.1129,0.0301,-0.0632,-0.029,131.3037,-136.8652,-3.3178,Sit
2025-11-21 14:33:06.488764+00:00,-0.0645,0.6837,-0.7408,-0.1564,-0.0744,-0.0445,0.0411,0.0113,-0.0828,131.6769,-137.0881,-3.6406,Sit
2025-11-21 14:33:06.589127+00:00,-0.062,0.6812,-0.7486,-0.0974,-0.0259,-0.0248,0.0521,-0.0363,-0.0107,132.3323,-137.486,-4.1558,Sit
2025-11-21 14:33:06.689249+00:00,-0.0527,0.6749,-0.7657,0.0397,-0.0613,-0.2076,-0.0017,-0.0119,-0.0131,132.7878,-137.8384,-4.3342,Sit
2025-11-21 14:33:06.789398+00:00,-0.0552,0.6851,-0.7442,0.008,-0.002,0.0725,-0.0066,-0.018,-0.0058,132.9332,-137.8247,-4.4398,Sit
2025-11-21 14:33:06.889671+00:00,-0.0547,0.6783,-0.7442,0.0388,-0.0138,0.0265,-0.0078,0.004,-0.0058,132.9561,-137.7628,-4.4673,Sit
2025-11-21 14:33:06.989910+00:00,-0.0557,0.6763,-0.7462,0.0422,-0.0238,0.0014,-0.0139,0.0125,-0.0082,132.7569,-137.7228,-4.3852,Sit
2025-11-21 14:33:07.089854+00:00,-0.0601,0.6837,-0.755,-0.0015,-0.0064,-0.0772,0.0044,-0.0021,0.0027,132.8202,-137.733,-4.4326,Sit
2025-11-21 14:33:07.190234+00:00,-0.0552,0.6837,-0.7496,0.0174,0.0037,0.0243,0.0057,-0.0009,0.0015,132.8364,-137.761,-4.4284,Sit
2025-11-21 14:33:07.290429+00:00,-0.0596,0.6812,-0.7491,0.0122,-0.014,0.009,0.0105,0.0003,0.0003,132.7635,-137.7892,-4.3854,Sit
2025-11-21 14:33:07.390707+00:00,-0.0547,0.6807,-0.752,0.0343,-0.0045,-0.0114,0.0069,0.0003,-0.0021,132.7513,-137.8514,-4.3689,Sit
2025-11-21 14:33:07.490936+00:00,-0.0571,0.6812,-0.753,-0.0103,-0.0108,-0.0206,0.0081,-0.007,0.0003,132.7708,-137.8948,-4.3675,Sit
2025-11-21 14:33:07.591274+00:00,-0.0562,0.6817,-0.7545,0.0122,0.0122,-0.0149,0.002,0.0003,0.0015,132.7632,-137.9159,-4.3569,Sit
2025-11-21 14:33:07.691184+00:00,-0.0591,0.6788,-0.7501,-0.0048,0.0065,0.0071,0.002,0.0015,-0.0009,132.7236,-137.9137,-4.3349,Sit
2025-11-21 14:33:07.791251+00:00,-0.0576,0.6802,-0.7511,0.0005,-0.0295,-0.0119,0.0032,-0.0009,-0.0021,132.7361,-137.9314,-4.3369,Sit
2025-11-21 14:33:07.891478+00:00,-0.0542,0.6817,-0.7554,0.0005,-0.0075,-0.024,-0.0005,-0.0021,-0.0009,132.7806,-137.9519,-4.3565,Sit
2025-11-21 14:33:07.991965+00:00,-0.0576,0.6793,-0.7486,0.0101,0.0067,0.0065,0.0032,-0.0021,-0.0021,132.7795,-137.9516,-4.3559,Sit
2025-11-21 14:33:08.092112999+00:00,-0.0591,0.6817,-0.7569,0.0075,0.0223,-0.0571,0.0118,0.0003,0.0003,132.8593,-137.9877,-4.3912,Sit
2025-11-21 14:33:08.192010+00:00,-0.0576,0.6798,-0.7496,-0.0204,0.0112,0.0157,0.0179,-0.0034,0.0015,132.8545,-138.0447,-4.3719,Sit
2025-11-21 14:33:08.292330+00:00,-0.0562,0.6763,-0.7554,0.0162,-0.0299,-0.0377,0.0032,0.0003,0.0003,132.9003,-138.1245,-4.375,Sit
2025-11-21 14:33:08.392746+00:00,-0.0557,0.6763,-0.7584,-0.0002,0.0042,-0.0622,-0.0017,-0.0046,0.0003,132.8764,-138.1558,-4.3524,Sit
2025-11-21 14:33:08.492907+00:00,-0.0581,0.6744,-0.7545,-0.0014,-0.0107,-0.0007,0.0081,-0.0021,0.0027,132.9008,-138.1627,-4.3643,Sit
2025-11-21 14:33:08.592985+00:00,-0.0566,0.6768,-0.7554,0.0134,0.0007,-0.0145,0.0081,-0.0034,0.0003,132.9214,-138.2013,-4.365,Sit
2025-11-21 14:33:08.693350+00:00,-0.0562,0.6788,-0.7642,0.0043,0.0143,-0.0675,-0.0017,-0.0119,-0.0034,132.9671,-138.2368,-4.3809,Sit
2025-11-21 14:33:08.793422+00:00,-0.0557,0.6788,-0.7506,0.0215,0.0209,0.0235,-0.0017,0.0027,0.0052,132.9655,-138.1732,-4.3983,Sit
2025-11-21 14:33:08.893620+00:00,-0.0625,0.6744,-0.7511,-0.0338,-0.0116,0.0138,0.0118,-0.0095,0.0052,132.9293,-138.1479,-4.3849,Sit
2025-11-21 14:33:08.993952+00:00,-0.0596,0.6729,-0.7467,-0.0059,-0.0197,0.054,-0.0029,0.004,0.0015,132.9403,-138.1852,-4.3825,Sit
2025-11-21 14:33:09.094223+00:00,-0.0596,0.6734,-0.7476,-0.0083,-0.0178,0.0273,-0.0029,-0.0021,-0.0034,132.9075,-138.201,-4.3607,Sit
2025-11-21 14:33:09.194295+00:00,-0.0571,0.6754,-0.7506,0.0017,0.0064,0.0398,0.0081,-0.0009,0.0027,132.9919,-138.2258,-4.4022,Sit
2025-11-21 14:33:09.294606+00:00,-0.0596,0.6734,-0.7535,-0.014,-0.0044,0.0107,-0.0005,-0.0021,-0.0034,133.0104,-138.2476,-4.4076,Sit
2025-11-21 14:33:09.394622+00:00,-0.0581,0.6715,-0.7501,-0.0022,0.0076,0.0447,0.0142,0.0052,0.0064,132.9801,-138.2504,-4.3895,Sit
2025-11-21 14:33:09.494620+00:00,-0.0562,0.6744,-0.7642,0.015,-0.0121,-0.0663,0.013,-0.0095,0.0027,133.0063,-138.3707,-4.3662,Sit
2025-11-21 14:33:09.595057+00:00,-0.0527,0.6749,-0.7564,0.0176,0.0433,-0.0157,0.0093,-0.0021,-0.0009,133.0703,-138.432,-4.3805,Sit
2025-11-21 14:33:09.695375+00:00,-0.0625,0.6715,-0.754,-0.0391,-0.0213,0.0844,0.0386,-0.007,0.0015,133.1078,-138.5112,-4.4023,Sit
2025-11-21 14:33:09.795511+00:00,-0.0571,0.6675,-0.7628,0.0026,-0.0114,-0.0562,0.0105,-0.0021,0.004,133.218,-138.6427,-4.4361,Sit
2025-11-21 14:33:09.895553+00:00,-0.061,0.6675,-0.7598,-0.028,-0.0054,-0.0072,0.0081,-0.0046,0.0052,133.2635,-138.7016,-4.4364,Sit
2025-11-21 14:33:09.996012+00:00,-0.0566,0.67,-0.755,0.0241,-0.0001,0.0098,-0.0005,0.0003,0.0003,133.2137,-138.7019,-4.3944,Sit
2025-11-21 14:33:10.096129+00:00,-0.0576,0.6695,-0.7662,0.0176,0.0176,-0.0394,0.0069,-0.0021,-0.0046,133.2605,-138.7406,-4.4158,Sit
2025-11-21 14:33:10.196171+00:00,-0.0562,0.67,-0.7633,0.0012,0.0088,-0.0052,-0.0053,0.0027,-0.0046,133.2516,-138.7559,-4.4166,Sit
2025-11-21 14:33:10.296709+00:00,-0.0591,0.67,-0.7589,-0.0175,0.0007,0.0346,-0.0115,0.0003,-0.0021,133.2674,-138.7105,-4.4418,Sit
2025-11-21 14:33:10.396870+00:00,-0.0566,0.6695,-0.7628,-0.0045,-0.0107,0.0047,-0.0102,0.0003,-0.0021,133.2918,-138.6531,-4.472,Sit
2025-11-21 14:33:10.497127+00:00,-0.061,0.668,-0.7579,-0.0001,-0.0101,-0.0169,-0.0127,0.0015,-0.0034,133.2291,-138.5841,-4.4561,Sit
2025-11-21 14:33:10.596996+00:00,-0.0606,0.6768,-0.7623,-0.0141,0.0062,-0.0342,-0.0102,-0.0021,-0.0021,133.2726,-138.5141,-4.5013,Sit
2025-11-21 14:33:10.697333+00:00,-0.064,0.6729,-0.7598,0.0158,0.0292,0.0236,0.002,-0.0119,-0.0009,133.2444,-138.4526,-4.4964,Sit
2025-11-21 14:33:10.797488+00:00,-0.0606,0.6612,-0.7633,0.0084,-0.0279,-0.023,0.0826,-0.0339,0.0052,133.5975,-138.6796,-4.5887,Sit
2025-11-21 14:33:10.897545+00:00,-0.0547,0.6592,-0.7696,0.0684,-0.0198,-0.0899,0.024,0.0052,0.0064,133.9481,-139.146,-4.6414,Sit
2025-11-21 14:33:10.997737+00:00,-0.0591,0.6656,-0.7623,0.01,0.0361,0.0792,0.0093,0.0003,0.0027,133.8667,-139.2507,-4.5623,Sit
2025-11-21 14:33:11.097921+00:00,-0.0581,0.6651,-0.7647,0.0255,0.0263,0.015,0.0069,0.0089,0.004,133.7883,-139.2879,-4.5139,Sit
2025-11-21 14:33:11.198117+00:00,-0.0527,0.6607,-0.7725,0.0423,0.0271,-0.0365,0.0105,0.0015,-0.0021,133.7313,-139.3438,-4.4744,Sit
2025-11-21 14:33:11.298525+00:00,-0.0606,0.6617,-0.7637,0.0079,0.0227,0.0437,0.0142,-0.0082,-0.0034,133.7481,-139.3696,-4.4814,Sit
2025-11-21 14:33:11.398499+00:00,-0.0581,0.6592,-0.7691,0.0259,0.0366,-0.0361,0.0057,0.0052,-0.0021,133.818,-139.4333,-4.5098,Sit
2025-11-21 14:33:11.498689+00:00,-0.0601,0.6578,-0.7725,0.0174,0.0049,-0.0099,0.0093,-0.0021,-0.0009,133.7529,-139.4605,-4.4775,Sit
2025-11-21 14:33:11.598933+00:00,-0.0586,0.6597,-0.7711,0.0066,0.0076,-0.038,-0.0041,0.0027,0.0064,133.7829,-139.4736,-4.4879,Sit
2025-11-21 14:33:11.699106+00:00,-0.0576,0.6622,-0.7716,-0.0113,0.0212,-0.0324,0.0154,-0.0119,0.0003,133.7551,-139.4798,-4.4739,Sit
2025-11-21 14:33:11.799478+00:00,-0.0581,0.6602,-0.7711,0.0166,0.0033,-0.0085,0.0008,0.0052,-0.0021,133.781,-139.4887,-4.4894,Sit
2025-11-21 14:33:11.899481+00:00,-0.0649,0.6563,-0.773,-0.0344,-0.0064,-0.0311,-0.0017,-0.0021,-0.0021,133.7891,-139.4946,-4.4972,Sit
2025-11-21 14:33:11.999718+00:00,-0.0566,0.6592,-0.7598,-0.0116,0.0136,0.0885,0.0093,-0.0009,0.0027,133.7413,-139.4797,-4.4745,Sit
2025-11-21 14:33:12.099988+00:00,-0.0571,0.6568,-0.7799,0.0089,-0.0187,-0.0876,-0.0005,0.0052,0.0003,133.7488,-139.5232,-4.4666,Sit
2025-11-21 14:33:12.199972+00:00,-0.061,0.6627,-0.7662,-0.025,0.0135,0.0311,-0.0188,0.0052,-0.0034,133.653,-139.4902,-4.4243,Sit
2025-11-21 14:33:12.300174+00:00,-0.0591,0.6592,-0.7691,0.0056,0.0214,0.0095,-0.009,0.0052,-0.0009,133.6156,-139.3929,-4.4298,Sit
2025-11-21 14:33:12.400252+00:00,-0.0571,0.6617,-0.7657,0.0029,0.0007,0.0063,-0.0163,0.0064,-0.0046,133.5179,-139.3143,-4.3952,Sit
2025-11-21 14:33:12.500490+00:00,-0.0581,0.6627,-0.7652,-0.0003,-0.0053,-0.0035,-0.0139,0.0052,-0.0034,133.4949,-139.2396,-4.4124,Sit
2025-11-21 14:33:12.603157+00:00,-0.0586,0.669,-0.7677,0.0323,0.0435,-0.017,-0.0273,0.0113,-0.0095,133.4096,-139.1329,-4.3969,Sit
2025-11-21 14:33:12.700992+00:00,-0.061,0.6617,-0.7598,-0.0154,-0.0065,0.0503,-0.0102,0.0027,0.0027,133.295,-138.9572,-4.3731,Sit
2025-11-21 14:33:12.801084+00:00,-0.0523,0.6695,-0.7637,0.0612,0.0672,-0.0204,-0.0005,-0.0107,-0.0021,133.3867,-138.9482,-4.3935,Sit
2025-11-21 14:33:12.901211+00:00,-0.0615,0.6636,-0.7569,-0.0295,-0.0336,0.0742,0.0203,-0.0241,-0.0095,133.3766,-138.9164,-4.413,Sit
2025-11-21 14:33:13.001397+00:00,-0.0606,0.6651,-0.7852,-0.0516,-0.0197,-0.1953,-0.0029,0.0687,0.004,133.6322,-139.1223,-4.5536,Sit
2025-11-21 14:33:13.101496+00:00,-0.0752,0.6578,-0.7432,-0.1735,-0.0828,0.1558,0.0093,-0.0388,0.0528,133.5196,-138.8561,-4.5803,Sit
2025-11-21 14:33:13.201642+00:00,-0.0713,0.6568,-0.7764,-0.1092,-0.0072,-0.1494,0.0728,0.0137,-0.0327,133.4843,-139.2539,-4.4294,Sit
2025-11-21 14:33:13.301699+00:00,-0.0464,0.6568,-0.7564,0.1196,0.0372,0.0894,-0.0163,0.004,0.0174,133.0884,-139.44,-4.2341,Sit
2025-11-21 14:33:13.402141+00:00,-0.0718,0.6661,-0.7481,-0.1045,0.0454,0.1766,0.013,-0.0767,0.0125,133.5643,-139.2572,-4.3971,Sit
2025-11-21 14:33:13.502488+00:00,-0.0503,0.6578,-0.7813,0.1394,0.0081,-0.1442,0.0154,0.0357,-0.0058,133.8653,-139.6443,-4.5237,Sit
2025-11-21 14:33:13.603111+00:00,-0.0518,0.6436,-0.7779,0.0772,-0.0707,-0.0578,0.0203,0.0235,-0.0168,133.4413,-139.6736,-4.3448,Sit
2025-11-21 14:33:13.703280+00:00,-0.0708,0.6612,-0.7618,-0.0905,0.0665,0.0742,0.0399,-0.0144,-0.0119,133.553,-139.7903,-4.4799,Sit
2025-11-21 14:33:13.803287+00:00,-0.0586,0.6485,-0.7784,0.0431,0.011,-0.0545,-0.0005,0.0076,-0.0095,133.7426,-139.995,-4.5661,Sit
2025-11-21 14:33:13.903589+00:00,-0.0635,0.6475,-0.7696,-0.0204,-0.0377,0.0337,-0.0017,0.0052,-0.0046,133.6138,-140.0159,-4.5333,Sit
2025-11-21 14:33:14.003856+00:00,-0.0615,0.6514,-0.7745,-0.0111,0.021,0.0046,0.002,0.0003,0.004,133.6272,-139.9831,-4.5545,Sit
2025-11-21 14:33:14.103951+00:00,-0.0601,0.6505,-0.7799,0.0023,0.0132,-0.0698,0.0069,0.004,-0.0082,133.5362,-140.0127,-4.5082,Sit
2025-11-21 14:33:14.204038+00:00,-0.064,0.6505,-0.7774,-0.0096,-0.0063,-0.0325,-0.0066,0.0052,0.0015,133.5467,-140.0297,-4.5248,Sit
2025-11-21 14:33:14.304215+00:00,-0.0581,0.6519,-0.773,0.0258,-0.0131,0.0308,0.0044,-0.0046,0.0003,133.4785,-139.9968,-4.4889,Sit
2025-11-21 14:33:14.404423+00:00,-0.061,0.6529,-0.7716,0.0061,-0.0005,0.0171,0.0008,0.0027,-0.0021,133.5159,-140.0135,-4.503,Sit
2025-11-21 14:33:14.504684+00:00,-0.0645,0.6534,-0.7769,-0.0152,0.0061,-0.0079,0.0081,-0.0058,-0.0009,133.5573,-140.0357,-4.52,Sit
2025-11-21 14:33:14.604832+00:00,-0.0601,0.6509,-0.7755,-0.0203,0.0084,-0.0271,0.0044,-0.0009,-0.0021,133.5993,-140.0744,-4.5327,Sit
2025-11-21 14:33:14.704991+00:00,-0.061,0.6514,-0.7784,-0.0088,0.0208,-0.0279,-0.0017,-0.0009,-0.0009,133.6281,-140.0829,-4.5464,Sit
2025-11-21 14:33:14.805393+00:00,-0.0615,0.6524,-0.7784,0.0039,0.0282,-0.0355,-0.009,0.0003,-0.0021,133.6322,-140.0719,-4.5517,Sit
2025-11-21 14:33:14.905342+00:00,-0.061,0.6544,-0.7735,-0.0247,-0.0049,0.0032,-0.0127,0.004,0.0003,133.6096,-140.0068,-4.5572,Sit
2025-11-21 14:33:15.005615+00:00,-0.063,0.6529,-0.774,-0.011,0.0037,0.002,-0.0115,0.0027,-0.0046,133.5773,-139.9484,-4.5554,Sit
2025-11-21 14:33:15.105815+00:00,-0.0601,0.6534,-0.773,0.0159,0.001,-0.0138,-0.0102,-0.0021,-0.0058,133.5237,-139.8721,-4.5467,Sit
2025-11-21 14:33:15.206083+00:00,-0.0606,0.6553,-0.774,-0.0056,0.0024,-0.0158,-0.0127,0.0027,-0.0058,133.5278,-139.8118,-4.5694,Sit
2025-11-21 14:33:15.306320+00:00,-0.0669,0.6568,-0.7711,-0.0094,-0.0031,0.0161,-0.0066,-0.0021,-0.0058,133.5399,-139.756,-4.6,Sit
2025-11-21 14:33:15.406275+00:00,-0.0625,0.6568,-0.773,0.0057,0.0163,-0.0379,-0.0127,0.0003,-0.0021,133.5671,-139.7155,-4.6262,Sit
2025-11-21 14:33:15.506540+00:00,-0.0659,0.6573,-0.7725,0.0082,0.0053,-0.005,-0.0017,-0.0058,-0.0034,133.5376,-139.6471,-4.6328,Sit
2025-11-21 14:33:15.606750+00:00,-0.0645,0.6568,-0.7652,-0.0104,-0.0105,0.0309,0.0081,0.0003,-0.0009,133.5545,-139.6332,-4.6565,Sit
2025-11-21 14:33:15.706845+00:00,-0.063,0.6544,-0.7711,0.02,-0.0085,0.01,0.0093,-0.0046,-0.0009,133.5797,-139.6922,-4.6647,Sit
2025-11-21 14:33:15.807193+00:00,-0.0635,0.6539,-0.7706,-0.0045,0.0042,0.0041,0.0118,-0.0034,0.004,133.6148,-139.7477,-4.6744,Sit
2025-11-21 14:33:15.907299+00:00,-0.0606,0.6534,-0.7721,0.0028,-0.009,0.0128,0.013,-0.0034,0.004,133.5969,-139.8155,-4.6525,Sit
2025-11-21 14:33:16.007459999+00:00,-0.0645,0.6524,-0.774,-0.0145,-0.005,-0.0239,0.0154,-0.0058,0.0003,133.6361,-139.901,-4.661,Sit
2025-11-21 14:33:16.107569+00:00,-0.0645,0.6505,-0.773,0.0136,-0.011,0.0092,0.0093,-0.0021,-0.0009,133.6697,-139.9725,-4.6685,Sit
2025-11-21 14:33:16.207664+00:00,-0.0645,0.6485,-0.773,-0.0096,-0.0014,-0.0157,0.0105,-0.0046,0.0015,133.6906,-140.0272,-4.6698,Sit
2025-11-21 14:33:16.307965+00:00,-0.0649,0.6514,-0.7789,-0.0054,0.0309,-0.0353,0.0069,-0.0009,0.0015,133.7331,-140.1068,-4.6785,Sit
2025-11-21 14:33:16.407927+00:00,-0.0625,0.6509,-0.775,0.0273,-0.0081,-0.0076,0.0057,0.0003,0.0015,133.7349,-140.1583,-4.6704,Sit
2025-11-21 14:33:16.508392+00:00,-0.063,0.6485,-0.7745,0.0185,-0.0093,0.0194,0.0008,0.0027,0.0015,133.7153,-140.1766,-4.6541,Sit
2025-11-21 14:33:16.608654+00:00,-0.0669,0.6475,-0.775,-0.0098,-0.0023,-0.0013,0.0032,-0.0009,0.0027,133.7258,-140.1897,-4.6569,Sit
2025-11-21 14:33:16.708842+00:00,-0.0606,0.6485,-0.775,0.0168,-0.0059,-0.0007,0.002,-0.0009,-0.0009,133.7035,-140.205,-4.6403,Sit
2025-11-21 14:33:16.808884+00:00,-0.0625,0.648,-0.7764,-0.0134,-0.0164,-0.0143,0.0008,0.0015,-0.0009,133.717,-140.2135,-4.6454,Sit
2025-11-21 14:33:16.909144999+00:00,-0.0635,0.6485,-0.7789,-0.0304,0.0083,-0.0235,0.0044,-0.007,-0.0009,133.7457,-140.2287,-4.6572,Sit
2025-11-21 14:33:17.009359+00:00,-0.062,0.6495,-0.7764,-0.0001,-0.0151,-0.0066,-0.0029,0.0027,0.0015,133.7458,-140.242,-4.6535,Sit
2025-11-21 14:33:17.109777+00:00,-0.0625,0.649,-0.775,0.0161,0.0166,0.0044,0.0008,0.0003,-0.0009,133.7096,-140.241,-4.6336,Sit
2025-11-21 14:33:17.209787+00:00,-0.063,0.647,-0.7779,-0.0166,-0.0004,0.0025,0.0032,-0.0009,0.0003,133.7157,-140.2411,-4.6371,Sit
2025-11-21 14:33:17.309855+00:00,-0.0659,0.65,-0.7794,-0.0054,0.0192,-0.0065,0.0032,0.0003,0.0003,133.7151,-140.2641,-4.6303,Sit
2025-11-21 14:33:17.409964+00:00,-0.0645,0.648,-0.7769,0.0068,0.0076,0.0021,-0.0005,0.0003,-0.0009,133.7224,-140.2717,-4.6322,Sit
2025-11-21 14:33:17.510355+00:00,-0.0606,0.6495,-0.774,0.0164,0.0057,0.0113,0.0044,-0.0034,-0.0009,133.7206,-140.2706,-4.6315,Sit
2025-11-21 14:33:17.610267+00:00,-0.0606,0.6495,-0.7794,-0.0035,-0.005,-0.0015,0.0044,-0.0034,-0.0021,133.7462,-140.2836,-4.6422,Sit
2025-11-21 14:33:17.710786+00:00,-0.0679,0.6514,-0.7857,-0.0147,0.0325,-0.0955,-0.0102,0.0003,-0.0034,133.7818,-140.2784,-4.6634,Sit
2025-11-21 14:33:17.810986+00:00,-0.0571,0.649,-0.7755,0.0394,-0.0262,0.0047,-0.009,0.0076,-0.0034,133.6507,-140.1922,-4.6144,Sit
2025-11-21 14:33:17.911133+00:00,-0.0684,0.6466,-0.7755,-0.0145,0.0049,0.0219,0.0081,-0.007,0.0027,133.7166,-140.1656,-4.6561,Sit
2025-11-21 14:33:18.011235+00:00,-0.0562,0.6505,-0.7745,0.0428,0.0057,0.0156,-0.0017,-0.0009,0.0003,133.695,-140.1927,-4.6265,Sit
2025-11-21 14:33:18.111297+00:00,-0.0654,0.648,-0.774,-0.0078,-0.0051,-0.0012,0.0008,-0.0009,-0.0021,133.7251,-140.2045,-4.6489,Sit
2025-11-21 14:33:18.211656+00:00,-0.0645,0.648,-0.7784,0.0136,0.005,-0.0013,0.0081,-0.0058,-0.0034,133.7904,-140.228,-4.6844,Sit
2025-11-21 14:33:18.311900+00:00,-0.0649,0.6495,-0.7857,-0.0206,0.023,-0.0474,0.0069,-0.0046,0.0003,133.8393,-140.2789,-4.7095,Sit
2025-11-21 14:33:18.412017+00:00,-0.0679,0.6485,-0.7769,-0.0307,0.0191,0.0095,-0.0078,0.0064,-0.0009,133.8277,-140.2589,-4.7095,Sit
2025-11-21 14:33:18.512202+00:00,-0.063,0.6514,-0.774,-0.0002,0.0179,0.0022,-0.0053,-0.0082,-0.0021,133.8053,-140.2327,-4.7043,Sit
2025-11-21 14:33:18.612135+00:00,-0.0649,0.647,-0.7804,-0.0198,0.0077,0.0064,-0.0017,0.0284,0.0027,133.7617,-140.1835,-4.6937,Sit
2025-11-21 14:33:18.712668+00:00,-0.0659,0.6358,-0.7755,-0.1791,-0.0515,0.0332,0.079,0.3314,0.0345,132.7831,-140.3188,-4.2385,Sit
2025-11-21 14:33:18.813255+00:00,-0.0435,0.6539,-0.7623,0.1241,0.2151,0.2357,0.1046,-0.2514,0.0137,132.1722,-141.0468,-3.9088,Sit
2025-11-21 14:33:18.912906+00:00,-0.0474,0.6343,-0.8238,0.2643,0.1403,-0.1817,0.1791,-0.2868,-0.0706,134.1859,-141.5729,-4.8542,Sit
2025-11-21 14:33:19.012878+00:00,-0.0947,0.6207,-0.8673,-0.1461,-0.2061,-0.7478,-0.4684,-0.062,0.0027,136.1607,-141.526,-5.8729,Sit
2025-11-21 14:33:19.113445+00:00,-0.0874,0.5948,-0.7188,0.0823,-0.8532,-0.2825,-0.7359,-0.8329,0.0541,140.4051,-138.5465,-8.1246,Sit
2025-11-21 14:33:19.213477+00:00,-0.1675,0.6861,-0.8263,-0.1726,0.4615,0.0585,0.7924,-0.0486,-0.2538,142.7603,-137.6786,-9.6386,Sit
2025-11-21 14:33:19.313776+00:00,-0.085,0.6607,-0.9,0.4147,0.1651,-1.3151,-0.3108,-0.0302,0.1811,143.726,-139.5409,-9.7451,Sit
2025-11-21 14:33:19.413965+00:00,-0.1724,0.6885,-0.8516,-0.2278,0.536,-0.4638,0.4467,-0.1353,-0.1964,142.9321,-139.0913,-9.2561,Sit
2025-11-21 14:33:19.514112+00:00,-0.0991,0.6568,-0.7691,0.3621,0.1423,0.1019,0.1132,0.0113,0.0223,142.8511,-140.0751,-9.1288,Sit
2025-11-21 14:33:19.614029+00:00,-0.1289,0.6461,-0.794,-0.0943,0.0237,-0.1354,0.0826,0.0589,0.0125,141.6355,-140.6432,-8.4409,Sit
2025-11-21 14:33:19.714500+00:00,-0.104,0.647,-0.7315,-0.0413,0.034,0.57,0.1034,0.2239,0.0492,139.6469,-140.8792,-7.3814,Sit
2025-11-21 14:33:19.814707+00:00,-0.0957,0.6358,-0.8057,0.0069,0.0364,-0.1414,0.1278,-0.0217,0.015,138.5622,-141.7599,-6.6763,Sit
2025-11-21 14:33:19.914834+00:00,-0.106,0.6163,-0.88,-0.045,0.0901,-0.5363,0.1804,-0.0657,-0.0278,139.1825,-142.6491,-6.9117,Sit
2025-11-21 14:33:20.014964+00:00,0.0606,0.5591,-0.9693,2.2124,1.0074,-0.989,0.7301,-0.2929,0.1885,139.14,-142.6357,-6.5445,Sit
2025-11-21 14:33:20.115222+00:00,-0.0576,0.648,-0.8228,0.3024,0.2378,-0.0959,-0.0615,-0.3467,0.0174,139.0154,-142.2249,-6.7273,Sit
2025-11-21 14:33:20.215412+00:00,-0.0996,0.6285,-0.8131,0.0822,0.0745,-0.0987,-0.13,0.1151,-0.0229,141.0224,-142.6837,-7.5304,Sit
2025-11-21 14:33:20.315799+00:00,-0.0825,0.6339,-0.773,0.1762,0.1293,0.4047,-0.0017,0.1213,-0.0205,139.3392,-142.4545,-6.8316,Sit
2025-11-21 14:33:20.415755+00:00,-0.106,0.6192,-0.8121,-0.0507,-0.0144,-0.0599,0.0069,-0.0131,-0.0119,139.2626,-142.5305,-6.8115,Sit
2025-11-21 14:33:20.518191+00:00,-0.0938,0.6265,-0.7916,0.0362,0.0573,0.1204,-0.02,0.0101,0.0089,139.3227,-142.6153,-6.8583,Sit
2025-11-21 14:33:20.618060+00:00,-0.0942,0.6251,-0.7926,0.003,0.0298,0.1204,-0.0078,0.0089,-0.0046,139.1105,-142.4194,-6.7705,Sit
2025-11-21 14:33:20.718453+00:00,-0.0962,0.6256,-0.793,0.0142,0.0075,0.0808,-0.0078,-0.0021,-0.0034,139.0919,-142.3215,-6.7972,Sit
2025-11-21 14:33:20.818777+00:00,-0.0923,0.627,-0.797,-0.0004,0.0421,0.0274,-0.0249,0.0101,-0.0021,139.0579,-142.2166,-6.811,Sit
2025-11-21 14:33:20.918614+00:00,-0.0957,0.6295,-0.7877,0.0003,0.0178,0.0959,-0.0053,-0.0034,-0.0046,138.9875,-142.0591,-6.8154,Sit
2025-11-21 14:33:21.018992+00:00,-0.0962,0.626,-0.7891,-0.0073,0.0069,0.0351,-0.0127,0.0003,-0.0058,139.0139,-141.9654,-6.8586,Sit
2025-11-21 14:33:21.119001+00:00,-0.0933,0.6285,-0.7867,0.0238,-0.0178,0.0376,-0.0127,0.0027,-0.0095,139.0152,-141.865,-6.8903,Sit
2025-11-21 14:33:21.219281+00:00,-0.0957,0.629,-0.7852,-0.0166,0.0018,0.0328,-0.0176,0.0101,-0.007,138.9769,-141.7678,-6.9044,Sit
2025-11-21 14:33:21.319636+00:00,-0.0972,0.628,-0.7813,0.0023,-0.0048,0.0989,0.002,-0.0131,-0.0034,138.9613,-141.6739,-6.9314,Sit
2025-11-21 14:33:21.419638+00:00,-0.1016,0.6275,-0.7794,-0.0156,-0.049,0.0798,0.0154,-0.0168,0.0003,139.1661,-141.6749,-7.0479,Sit
2025-11-21 14:33:21.519965+00:00,-0.1011,0.6299,-0.7901,0.0034,0.0038,-0.0129,0.0081,-0.0107,0.0027,139.3267,-141.7428,-7.1168,Sit
2025-11-21 14:33:21.620404+00:00,-0.0991,0.628,-0.7882,0.0074,0.011,0.0201,0.0105,0.0064,0.0003,139.3391,-141.7801,-7.1108,Sit
2025-11-21 14:33:21.720372+00:00,-0.0977,0.628,-0.7901,0.0171,-0.0094,0.0132,0.0166,-0.0034,-0.0046,139.2946,-141.8236,-7.089,Sit
2025-11-21 14:33:21.820346+00:00,-0.1021,0.6241,-0.795,-0.0298,0.0108,-0.0265,0.0118,-0.0095,0.0027,139.4036,-141.9148,-7.1379,Sit
2025-11-21 14:33:21.920739+00:00,-0.104,0.6231,-0.7916,-0.021,-0.0031,-0.0047,0.0203,-0.0217,0.0125,139.5792,-141.9895,-7.1951,Sit
2025-11-21 14:33:22.021109+00:00,-0.0942,0.6221,-0.7965,0.0883,-0.0064,-0.0133,0.0301,-0.0657,0.0125,140.0016,-142.1662,-7.3215,Sit
2025-11-21 14:33:22.120759+00:00,-0.1069,0.6241,-0.7935,0.0146,0.0371,0.0431,0.0411,-0.0082,0.0186,140.7666,-142.3701,-7.606,Sit
2025-11-21 14:33:22.220902+00:00,-0.0928,0.628,-0.7877,0.1067,0.0217,0.0471,-0.0505,-0.0119,-0.0388,139.8838,-142.0974,-7.1847,Sit
2025-11-21 14:33:22.321069+00:00,-0.1196,0.6295,-0.7906,-0.1197,0.0118,0.0679,-0.0664,-0.0974,-0.04,140.6564,-141.8235,-7.7383,Sit
2025-11-21 14:33:22.421174+00:00,-0.1118,0.6236,-0.8546,0.1801,-0.2063,-0.6443,-0.4757,-0.3247,-0.0901,142.8418,-141.002,-8.9227,Sit
2025-11-21 14:33:22.521433+00:00,-0.1699,0.6641,-0.6939,0.0189,-0.1611,0.5935,-0.3413,-0.6032,-0.051,147.9906,-138.2593,-12.0105,Sit
2025-11-21 14:33:22.621527+00:00,-0.1968,0.6851,-0.6099,0.0011,-0.2292,0.8609,-0.1654,-0.3723,0.1726,154.8478,-136.3857,-15.6578,Sit
2025-11-21 14:33:22.721826+00:00,-0.1861,0.7105,-0.6534,0.2001,0.0267,0.5666,0.2048,0.0296,0.0308,156.3144,-136.099,-15.9651,Sit
2025-11-21 14:33:22.821975+00:00,-0.1934,0.6807,-0.7061,-0.1396,-0.0577,0.2612,0.2304,0.3913,0.1591,153.9232,-137.2373,-14.2784,Sit
2025-11-21 14:33:22.922120+00:00,-0.1377,0.6802,-0.7442,0.1325,0.0339,-0.0393,0.1156,0.2056,0.1958,150.2251,-138.2901,-11.5522,Sit
2025-11-21 14:33:23.022631+00:00,-0.106,0.6475,-0.773,0.0478,-0.2329,-0.2002,0.0899,0.0101,0.2935,146.9057,-138.7157,-9.1276,Sit
2025-11-21 14:33:23.123430+00:00,-0.1065,0.6578,-0.733,0.0494,-0.2385,0.3265,0.0582,-0.1964,0.1958,146.4328,-138.7872,-7.9485,Sit
2025-11-21 14:33:23.222774+00:00,-0.023,0.7193,-0.7891,0.2278,0.2259,-0.308,-0.3487,0.8018,0.2972,143.8482,-138.3164,-5.8686,Sit
2025-11-21 14:33:23.322865+00:00,0.1641,0.7838,-0.8248,1.5451,0.4639,-1.3723,-0.7628,0.6857,-0.4652,127.1312,-134.8922,2.0118,Sit
2025-11-21 14:33:23.422993+00:00,0.0625,0.775,-0.6392,0.4488,0.1614,0.2781,-0.5502,1.1866,-1.0247,121.088,-130.8136,2.1216,Sit
2025-11-21 14:33:23.523137+00:00,-0.0107,0.7935,-0.6627,-0.4134,-0.1625,-0.518,-0.433,0.9704,-0.6607,111.2831,-127.7153,2.4239,Sit
2025-11-21 14:33:23.623688+00:00,-0.0542,0.7286,-0.6002,-0.8817,-0.8961,0.0303,-0.0505,1.1341,-0.6118,103.1116,-125.8448,2.8194,Sit
2025-11-21 14:33:23.723473+00:00,0.0034,0.8726,-0.5538,-0.2453,0.8136,0.1294,-0.3535,0.9667,-0.9734,96.6283,-124.2365,2.7223,Sit
2025-11-21 14:33:23.824336+00:00,-0.023,0.7716,-0.5298,-0.7235,-1.2971,-0.1113,-0.6052,0.8946,-0.266,90.9495,-121.2219,2.0955,Sit
2025-11-21 14:33:23.924064+00:00,0.0112,0.8673,-0.3819,-0.2157,-0.4346,0.715,-1.0255,0.2166,-0.1194,88.3888,-117.1345,1.9786,Sit
2025-11-21 14:33:24.024148+00:00,0.0718,1.0094,-0.606,0.0283,0.8417,-1.7866,-0.549,1.4322,-0.2538,76.1477,-111.0345,4.5342,Sit
2025-11-21 14:33:24.124477+00:00,0.1802,1.0597,-0.2168,0.9167,0.5457,0.9326,-0.4525,0.2117,-0.3528,75.3632,-106.397,3.6562,Sit
2025-11-21 14:33:24.224569+00:00,0.0239,0.8878,-0.1441,0.1247,-1.0178,1.1667,0.1266,-0.4749,-0.4114,82.6353,-104.7663,0.8519,Sit
2025-11-21 14:33:24.324971+00:00,-0.1553,0.9156,-0.3653,-1.3124,-0.4289,-0.5472,0.217,0.0932,0.0333,90.5266,-106.7626,-1.7751,Sit
2025-11-21 14:33:24.425040+00:00,0.0371,0.9127,-0.1504,0.2066,-0.5802,0.7743,-0.4293,0.0199,0.0382,88.7789,-105.4303,-1.147,Sit
2025-11-21 14:33:24.525031+00:00,0.0171,0.9088,-0.4493,0.1909,-0.2532,-1.3639,0.3245,0.026,-0.1414,90.468,-106.1644,-1.7172,Sit
2025-11-21 14:33:24.625014+00:00,0.0034,0.9859,-0.2383,-0.3084,-0.1101,-0.3641,-0.2472,-0.0131,0.037,91.5541,-106.0822,-2.4947,Sit
2025-11-21 14:33:24.725457+00:00,-0.21,0.9532,-0.2862,-1.5401,-0.1958,0.2462,0.3074,0.0211,0.1176,93.7388,-106.6562,-3.4266,Sit
2025-11-21 14:33:24.825488+00:00,-0.0693,0.9923,-0.378,-0.5739,0.0049,-1.0702,-0.279,0.1921,0.1811,90.9526,-107.1682,-2.2235,Sit
2025-11-21 14:33:24.925787+00:00,-0.1138,1.0675,-0.4239,-0.8057,1.602,-0.8582,0.2683,-0.0632,-0.3332,90.3556,-106.7743,-2.4664,Sit
2025-11-21 14:33:25.026161+00:00,-0.0835,1.0182,-0.2998,-0.3531,0.5855,-1.0246,-0.4904,0.1946,0.0773,91.5802,-106.8544,-3.4078,Sit
2025-11-21 14:33:25.126110+00:00,-0.0625,0.8907,-0.3189,0.0556,-0.7115,-0.3785,-0.0628,0.1518,-0.0486,88.6238,-105.9172,-2.658,Sit
2025-11-21 14:33:25.226532+00:00,-0.0332,0.9752,-0.3687,0.241,0.1127,-0.7993,-0.0774,-0.0901,-0.1378,87.32,-105.4156,-2.3873,Sit
2025-11-21 14:33:25.326735+00:00,-0.1094,0.9415,-0.4112,-0.4677,-0.0854,-1.4751,-0.3865,0.0174,-0.0388,89.6512,-104.6948,-3.2724,Sit
2025-11-21 14:33:25.426933+00:00,-0.103,0.9547,-0.1299,-0.7539,-0.3601,0.4736,-0.7384,0.3228,0.131,87.8387,-100.7948,-2.9198,Sit
2025-11-21 14:33:25.527182+00:00,-0.0171,0.9923,0.0552,0.2701,0.0618,1.9392,-0.279,0.0223,-0.0681,86.3015,-96.8598,-2.5603,Sit
2025-11-21 14:33:25.627315+00:00,-0.0884,1.0172,0.0527,-0.3321,0.085,1.0008,-0.2191,-0.018,-0.0693,87.4764,-95.6367,-3.2636,Sit
2025-11-21 14:33:25.727624+00:00,-0.0689,0.9913,-0.0776,0.1024,-0.135,0.1844,0.013,-0.0168,-0.0437,87.8056,-95.7162,-3.3992,Sit
2025-11-21 14:33:25.827923+00:00,-0.0776,0.9728,-0.0859,-0.0699,-0.2872,0.0114,-0.1446,0.0076,-0.0217,88.0373,-95.3051,-3.5359,Sit
2025-11-21 14:33:25.928021+00:00,-0.0601,0.9928,-0.0903,0.0984,-0.1572,-0.5006,-0.2753,0.0406,-0.0376,88.1099,-94.6124,-3.6446,Sit
2025-11-21 14:33:26.028122+00:00,-0.0791,0.9923,-0.0122,-0.0421,-0.1005,0.1505,-0.2265,0.015,-0.0803,88.9998,-94.4639,-4.252,Sit
2025-11-21 14:33:26.128301+00:00,-0.0923,0.9757,0.0547,-0.1055,-0.2208,0.4513,-0.1165,0.0516,-0.073,89.7867,-94.8167,-4.8166,Sit
2025-11-21 14:33:26.228747+00:00,-0.0728,0.9874,-0.0054,0.1482,-0.1101,0.0456,-0.0872,0.0822,-0.0522,89.7075,-84.7968,-5.1934,Sit
2025-11-21 14:33:26.328810+00:00,-0.085,0.9679,0.0381,0.077,-0.1962,0.3946,-0.097,0.0797,-0.161,90.0616,-84.1341,-5.7822,Sit
2025-11-21 14:33:26.429122+00:00,-0.1128,0.9874,-0.0034,0.1688,-0.0335,0.0069,-0.1239,0.0467,-0.1414,91.1936,-82.9541,-6.8411,Sit
2025-11-21 14:33:26.529462+00:00,-0.1343,0.9723,0.0879,-0.0613,-0.0748,0.4566,0.0716,-0.0327,-0.0706,91.6405,-81.989,-7.5961,Sit
2025-11-21 14:33:26.629460+00:00,-0.1392,0.9708,0.0684,-0.1008,-0.1531,0.2726,0.1339,-0.0339,0.0761,92.6485,-81.8215,-7.8945,Sit
2025-11-21 14:33:26.729748+00:00,-0.1387,0.9752,0.04,0.0396,-0.1168,0.302,0.0154,0.0003,-0.0168,92.6997,-82.2591,-7.5722,Sit
2025-11-21 14:33:26.829647+00:00,-0.1035,0.9713,0.0176,0.2493,-0.1389,-0.0005,0.079,0.0089,-0.0498,92.7857,-82.2381,-7.6142,Sit
2025-11-21 14:33:26.930168+00:00,-0.1944,0.9845,0.0532,-0.4384,0.0416,0.25,-0.0053,0.0174,-0.1524,94.126,-81.684,-8.2281,Sit
2025-11-21 14:33:27.030324+00:00,-0.1846,0.9542,0.0161,-0.127,-0.2905,0.3089,0.1865,-0.051,-0.0437,95.382,-80.9372,-8.9895,Sit
2025-11-21 14:33:27.130547+00:00,-0.1499,0.9737,0.0293,0.0286,-0.0682,0.2344,0.0594,-0.0241,0.0162,96.7794,-80.7817,-9.2051,Sit
2025-11-21 14:33:27.230751+00:00,-0.1602,0.9869,0.0493,-0.1261,0.0746,0.2613,-0.0835,0.026,0.1139,97.0366,-80.9073,-9.0902,Sit
2025-11-21 14:33:27.330967+00:00,-0.1065,0.9835,-0.0347,0.3055,-0.0619,-0.1648,0.0411,0.0211,0.0418,95.7247,-81.4018,-8.5888,Sit
2025-11-21 14:33:27.430996+00:00,-0.146,0.9674,0.0664,-0.0286,-0.1266,0.4622,-0.1862,-0.0754,0.0113,94.8298,-81.5943,-8.3448,Sit
2025-11-21 14:33:27.531367+00:00,-0.1182,1.0128,0.0557,0.2898,0.2924,0.2787,-0.1483,-0.0058,-0.0351,93.9688,-81.3412,-8.3558,Sit
2025-11-21 14:33:27.631736+00:00,-0.2031,0.9654,0.0308,-0.3194,-0.1439,-0.0418,-0.1996,0.0614,0.0382,93.754,-80.8444,-8.579,Sit
2025-11-21 14:33:27.732227+00:00,-0.1548,0.9947,0.064,-0.1951,0.0339,0.0665,-0.0249,0.087,0.1432,91.8137,-80.6583,-8.2421,Sit
2025-11-21 14:33:27.832916+00:00,-0.1338,0.9845,0.0591,-0.134,0.0285,-0.2103,-0.0005,0.0284,0.0699,90.6011,-81.1988,-7.642,Sit
2025-11-21 14:33:27.932402+00:00,-0.1235,0.9806,0.0615,0.2477,-0.054,-0.1103,0.0435,-0.0669,-0.0791,90.1975,-81.4867,-7.3678,Sit
2025-11-21 14:33:28.032592+00:00,-0.1358,0.9742,0.0112,0.0159,0.0313,-0.5373,-0.1287,0.0235,-0.0706,91.5199,-81.2686,-7.7956,Sit
2025-11-21 14:33:28.132708+00:00,-0.127,0.9669,0.1255,0.0458,-0.17,0.4512,-0.1239,0.0357,-0.018,91.4987,-80.4761,-8.1816,Sit
2025-11-21 14:33:28.232739+00:00,-0.1494,0.9908,0.1148,-0.1219,0.1491,0.035,-0.0823,-0.0034,-0.0363,91.8117,-79.9244,-8.47,Sit
2025-11-21 14:33:28.333112+00:00,-0.146,0.9752,0.0615,-0.0555,-0.0546,-0.3369,-0.0151,0.0015,-0.0156,92.2087,-79.7516,-8.7065,Sit
2025-11-21 14:33:28.433283+00:00,-0.167,0.9703,0.0811,-0.1347,-0.1436,-0.029,-0.0823,0.0027,-0.0351,92.4703,-79.4766,-8.8795,Sit
2025-11-21 14:33:28.533490+00:00,-0.1494,0.9806,0.2124,0.0839,-0.0071,1.189,0.035,0.0199,0.0223,92.2786,-78.8595,-9.0609,Sit
2025-11-21 14:33:28.633700+00:00,-0.1367,0.982,0.1362,0.0746,0.0798,-0.0363,-0.2143,0.0162,0.0162,92.1489,-78.9013,-8.9593,Sit
2025-11-21 14:33:28.733940+00:00,-0.1587,0.9649,0.1079,-0.2221,-0.1294,-0.0477,0.013,0.0272,0.0675,92.0249,-78.3043,-9.1288,Sit
2025-11-21 14:33:28.835129+00:00,-0.1826,0.9449,0.0806,-0.2545,-0.2319,-0.3424,0.068,-0.007,0.0504,91.6026,-78.3561,-8.9179,Sit
2025-11-21 14:33:28.934308+00:00,-0.1187,0.9776,0.2002,0.3376,0.046,0.7555,0.1107,-0.0217,-0.0412,90.7138,-78.493,-8.4536,Sit
2025-11-21 14:33:29.035027+00:00,-0.1318,0.9708,0.1333,0.184,-0.0394,0.0015,0.0008,-0.0021,0.0015,90.9216,-78.8691,-8.4535,Sit
2025-11-21 14:33:29.134770+00:00,-0.1397,0.9781,0.125,0.0272,0.0692,0.0064,0.0105,-0.0021,-0.0021,90.8944,-78.9056,-8.4302,Sit
2025-11-21 14:33:29.235067+00:00,-0.1729,0.9674,0.1289,-0.1917,-0.0225,0.0383,0.0032,-0.018,-0.04,91.1802,-78.7747,-8.5695,Sit
2025-11-21 14:33:29.335308+00:00,-0.1392,0.9747,0.1323,0.127,-0.01,0.0443,-0.0053,0.004,0.0174,91.2239,-78.822,-8.5851,Sit
2025-11-21 14:33:29.435319+00:00,-0.1426,0.9718,0.1172,0.0066,0.0177,-0.0535,-0.0102,0.0101,0.0272,91.0814,-78.9447,-8.4953,Sit
2025-11-21 14:33:29.536588+00:00,-0.1421,0.9786,0.1138,-0.0067,0.0529,-0.0276,-0.0139,-0.0156,0.0174,90.8496,-79.0335,-8.3422,Sit
2025-11-21 14:33:29.636844+00:00,-0.0776,0.9796,0.1489,0.6856,0.0288,0.2346,0.0961,-0.0437,-0.1023,90.4461,-79.0963,-8.1115,Sit
2025-11-21 14:33:29.736693+00:00,-0.1729,0.9513,0.1465,-0.0648,-0.1937,0.1773,0.1046,-0.0718,-0.2086,92.076,-78.9894,-8.7731,Sit
2025-11-21 14:33:29.836678+00:00,-0.189,0.9649,0.085,-0.3587,-0.051,-0.252,0.14,0.0541,0.1078,93.3758,-78.9373,-9.4558,Sit
2025-11-21 14:33:29.937249+00:00,-0.166,0.9869,0.0679,-0.0759,0.0336,-0.1064,0.1388,0.0296,-0.0046,92.6377,-79.8299,-8.9334,Sit
2025-11-21 14:33:30.037573+00:00,-0.1177,0.9659,0.0859,0.3259,-0.126,0.0179,-0.0774,0.0015,0.0162,93.1961,-79.8296,-9.115,Sit
2025-11-21 14:33:30.137448+00:00,-0.1636,0.984,0.061,-0.0839,0.1243,-0.2589,-0.0603,-0.0388,-0.0266,93.5112,-79.4981,-9.3103,Sit
2025-11-21 14:33:30.237736+00:00,-0.1587,0.9923,0.0835,-0.0406,0.1431,0.0528,0.1278,0.0052,0.0455,93.4469,-79.4767,-9.2901,Sit
2025-11-21 14:33:30.337885+00:00,-0.1387,0.9688,0.064,0.1182,-0.1184,-0.092,0.0741,0.0308,0.0455,93.2745,-80.1223,-8.9626,Sit
2025-11-21 14:33:30.438081+00:00,-0.1582,0.9796,0.0845,-0.0704,0.0252,0.1328,-0.031,0.004,-0.0388,93.4501,-80.1876,-8.9922,Sit
2025-11-21 14:33:30.538280+00:00,-0.1651,0.9772,0.0825,-0.0355,-0.0002,0.0834,-0.064,-0.0192,-0.0864,93.8434,-79.8003,-9.3094,Sit
2025-11-21 14:33:30.638448+00:00,-0.1787,0.9742,0.0552,-0.0199,0.0155,-0.1718,0.0264,-0.0107,-0.0473,94.4845,-79.3721,-9.6961,Sit
2025-11-21 14:33:30.738926+00:00,-0.167,0.962,0.0938,0.0601,-0.1533,0.2081,0.0655,0.0247,0.0076,94.6232,-79.3868,-9.7521,Sit
2025-11-21 14:33:30.838959+00:00,-0.1924,0.9693,0.0449,-0.2254,-0.0736,-0.1743,0.1193,0.0638,0.0492,94.7448,-79.6673,-9.7172,Sit
2025-11-21 14:33:30.939278+00:00,-0.1641,0.9825,0.0391,0.0452,0.0411,-0.0397,0.0899,0.0846,0.0076,94.177,-80.2719,-9.3188,Sit
2025-11-21 14:33:31.039408+00:00,-0.1411,0.983,0.0625,0.1341,0.0085,0.1612,0.0228,0.0174,-0.0241,94.0354,-80.3835,-9.296,Sit
2025-11-21 14:33:31.139243+00:00,-0.1602,0.9801,0.0273,-0.0379,-0.0044,-0.1501,0.0069,0.0308,0.0052,94.4727,-80.2179,-9.5192,Sit
2025-11-21 14:33:31.239602+00:00,-0.1699,0.9772,0.0523,-0.0568,0.0121,0.0909,-0.0591,0.0626,0.0003,94.1756,-80.2194,-9.5038,Sit
2025-11-21 14:33:31.339919+00:00,-0.1455,0.9908,0.0669,0.1438,0.1395,0.2099,0.0496,0.0492,-0.0144,93.6327,-80.2347,-9.4713,Sit
2025-11-21 14:33:31.440368+00:00,-0.1548,0.9942,0.0063,0.1513,0.0717,-0.2906,-0.0053,0.0174,-0.0767,94.1012,-80.2115,-9.5987,Sit
2025-11-21 14:33:31.540261+00:00,-0.189,0.962,0.0464,-0.2589,-0.1357,0.2103,0.0985,-0.0021,0.0174,94.9186,-79.7431,-10.0532,Sit
2025-11-21 14:33:31.640567+00:00,-0.1729,0.9728,0.019,0.05,-0.0041,-0.0403,0.0863,-0.0693,-0.0803,95.4222,-79.8838,-10.0006,Sit
2025-11-21 14:33:31.741053+00:00,-0.2002,0.9776,0.0376,-0.1603,0.0643,0.327,0.36,-0.0754,-0.018,97.1292,-79.5808,-10.3836,Sit
2025-11-21 14:33:31.841236+00:00,-0.1509,0.9869,-0.0376,0.1457,0.1486,-0.073,0.476,-0.0498,0.1885,97.7153,-100.1071,-10.0291,Sit
2025-11-21 14:33:31.941435+00:00,-0.1699,0.9879,-0.0576,-0.1753,0.1857,0.1328,0.4943,0.0015,0.307,96.2896,-99.7784,-9.0163,Sit
2025-11-21 14:33:32.041611+00:00,-0.1065,0.9732,-0.082,0.1784,-0.0181,0.4569,0.8291,-0.1219,0.2801,93.5555,-99.8963,-7.2051,Sit
2025-11-21 14:33:32.141747+00:00,-0.0674,0.9703,-0.3492,0.0458,0.0922,-1.2057,0.6568,-0.0095,0.4181,91.184,-102.8575,-5.4606,Sit
2025-11-21 14:33:32.241961+00:00,-0.0239,0.9688,-0.2495,0.5792,0.1606,-0.3792,-0.1251,-0.0583,-0.1048,89.8203,-103.9565,-4.2231,Sit
2025-11-21 14:33:32.342184+00:00,-0.0855,0.9679,-0.2818,0.0126,0.1514,-0.4555,0.0484,0.0272,-0.1268,91.1739,-104.0058,-4.9519,Sit
2025-11-21 14:33:32.442283+00:00,-0.1533,0.9591,-0.1895,-0.2318,-0.0304,0.411,0.2023,-0.062,-0.2673,93.6619,-104.7866,-6.2417,Sit
2025-11-21 14:33:32.542713+00:00,-0.1372,0.9259,-0.2549,-0.1689,-0.2087,0.1055,0.5774,-0.1475,0.0125,94.594,-106.9381,-6.902,Sit
2025-11-21 14:33:32.642583+00:00,-0.0273,0.9322,-0.523,0.6684,0.0499,-1.8225,0.3453,-0.0009,0.0247,94.9157,-110.3284,-6.7468,Sit
2025-11-21 14:33:32.743028+00:00,-0.1778,0.9176,-0.295,-0.4514,-0.0905,0.4025,0.2158,-0.1011,-0.0241,97.0051,-111.4552,-7.6011,Sit
2025-11-21 14:33:32.843048+00:00,-0.0435,0.9083,-0.5933,0.578,-0.0477,-1.7861,0.36,-0.0205,0.0932,97.6508,-113.9987,-7.5094,Sit
2025-11-21 14:33:32.943422+00:00,-0.0947,0.9049,-0.438,0.1769,0.0281,-0.4365,-0.119,-0.0021,-0.0889,98.5732,-114.8385,-7.8776,Sit
2025-11-21 14:33:33.043771999+00:00,-0.0908,0.8834,-0.4874,0.5223,-0.1031,-0.9601,-0.1617,-0.1133,-0.0962,99.4506,-114.534,-8.3633,Sit
2025-11-21 14:33:33.143900+00:00,-0.1001,0.9566,-0.3477,0.352,0.3238,-0.0369,-0.5417,0.0113,0.0394,99.9936,-112.4702,-8.4634,Sit
2025-11-21 14:33:33.244101+00:00,-0.0713,0.9772,-0.2378,0.5168,0.191,0.5937,-0.2937,-0.0082,0.0809,99.0942,-109.455,-7.7599,Sit
2025-11-21 14:33:33.344216+00:00,-0.1279,0.9415,-0.2676,0.0227,-0.0916,0.1009,-0.1984,0.0589,-0.0535,98.7287,-108.5848,-7.6224,Sit
2025-11-21 14:33:33.444533999+00:00,-0.0869,0.88,-0.2569,0.0522,-0.7422,0.6789,0.4882,-0.0486,0.2544,98.5725,-109.0967,-7.2628,Sit
2025-11-21 14:33:33.544683999+00:00,-0.0698,0.8751,-0.3628,0.3727,-0.4466,-0.593,-0.0921,-0.1927,-0.0657,98.9803,-110.4904,-7.111,Sit
2025-11-21 14:33:33.644784+00:00,-0.1109,0.9391,-0.3243,0.198,0.0442,0.0197,-0.367,0.4071,-0.117,98.9545,-109.1788,-7.5498,Sit
2025-11-21 14:33:33.745035+00:00,-0.1577,0.9552,-0.3052,-0.2406,0.1125,-0.373,-0.5673,0.0944,-0.0168,97.6666,-107.0168,-7.5377,Sit
2025-11-21 14:33:33.845048+00:00,-0.0913,0.9586,-0.2295,0.2928,-0.05,-0.4054,-0.8398,0.1701,-0.0901,96.3651,-103.387,-7.2795,Sit
2025-11-21 14:33:33.945459999+00:00,-0.167,0.9488,-0.1436,-0.2893,-0.2501,-0.0412,-0.4891,-0.0241,-0.0913,95.4323,-100.5312,-7.54,Sit
2025-11-21 14:33:34.045842999+00:00,-0.1528,0.964,-0.0415,-0.1146,-0.2075,0.3307,-0.5136,-0.0095,0.0541,95.8807,-98.9202,-7.7979,Sit
2025-11-21 14:33:34.149492+00:00,-0.1572,0.9713,-0.0444,-0.3093,-0.1763,-0.0107,-0.2167,0.1713,0.1481,94.2899,-97.6007,-7.2313,Sit
2025-11-21 14:33:34.246583+00:00,-0.126,0.9737,0.062,-0.0894,-0.1585,0.8013,-0.1617,0.0321,0.0504,92.4143,-96.7125,-6.6667,Sit
2025-11-21 14:33:34.346865+00:00,-0.1221,0.9952,-0.0527,-0.2013,0.0271,-0.5462,-0.2436,0.1054,0.1469,91.2257,-96.2849,-6.2768,Sit
2025-11-21 14:33:34.447150+00:00,-0.1143,0.9903,0.0063,-0.3474,-0.1089,-0.1612,-0.3254,0.0761,0.2471,87.8374,-84.5087,-5.3885,Sit
2025-11-21 14:33:34.547146+00:00,-0.0337,0.9806,0.0215,0.257,-0.0944,-0.0278,0.1535,-0.0791,0.0712,84.9096,-85.1741,-4.2305,Sit
2025-11-21 14:33:34.647322+00:00,-0.1885,0.9498,0.0186,-1.0972,-0.3505,-0.0633,0.1474,-0.0791,0.0406,87.5063,-84.9292,-4.8947,Sit
2025-11-21 14:33:34.747512+00:00,-0.0161,0.9791,0.0386,0.4759,-0.0154,0.3018,0.4247,-0.0608,0.0809,87.12,-85.8915,-4.1057,Sit
2025-11-21 14:33:34.847694+00:00,-0.1465,0.9728,-0.0098,-0.7441,-0.0502,0.5564,1.0429,-0.0449,0.0822,87.8103,-95.2208,-4.2124,Sit
2025-11-21 14:33:34.948272+00:00,-0.0918,0.9615,-0.1201,-0.4768,-0.1498,0.5469,1.6049,-0.1658,0.5599,86.2231,-100.3193,-2.9995,Sit
2025-11-21 14:33:35.048314+00:00,-0.0674,0.8057,-0.523,-0.5037,-1.056,-2.2326,1.0466,-2.0033,1.2782,84.2171,-109.06,0.2052,Sit
2025-11-21 14:33:35.148360+00:00,0.1919,0.9288,-0.4693,1.5069,0.427,-0.4779,0.768,-1.4157,0.5806,90.7795,-115.0434,3.1026,Sit
2025-11-21 14:33:35.248627+00:00,0.0317,0.8497,-0.521,-0.1828,0.163,-0.5474,0.5945,-0.7682,0.3326,97.5646,-119.2495,2.9102,Sit
2025-11-21 14:33:35.348955+00:00,-0.0947,0.7887,-0.6397,-1.5467,-0.1613,-0.377,1.2579,-1.2471,1.062,104.9942,-124.9524,2.4334,Sit
2025-11-21 14:33:35.449243+00:00,0.0767,0.7125,-0.8741,0.548,-0.0981,-2.1257,0.5359,-1.7236,1.1145,121.1645,-131.4695,0.3215,Sit
2025-11-21 14:33:35.549230+00:00,0.0928,0.7745,-0.7564,0.925,0.2017,-0.9143,-0.3572,0.2056,0.3094,128.9719,-131.8334,-0.149,Sit
2025-11-21 14:33:35.649488+00:00,-0.001,0.7061,-0.5572,-0.384,-0.6783,0.587,-0.4708,0.1323,0.0541,124.097,-128.5236,2.6208,Sit
2025-11-21 14:33:35.749683+00:00,0.0264,0.8062,-0.6417,0.0876,0.1364,-0.342,0.1999,-0.3613,0.0357,126.2699,-128.0084,1.4875,Sit
2025-11-21 14:33:35.849568+00:00,0.0474,0.7545,-0.6231,0.3725,-0.1948,0.0262,0.2524,-0.0913,-0.0779,128.3881,-128.9803,0.8592,Sit
2025-11-21 14:33:35.950017+00:00,0.0508,0.7672,-0.6802,0.5304,0.2071,-0.211,0.3233,-0.062,-0.0571,129.6292,-130.6121,0.1435,Sit
2025-11-21 14:33:36.050225+00:00,0.0083,0.7501,-0.7384,0.1199,0.1197,-0.5033,0.1791,0.004,-0.0644,130.0237,-132.352,-0.1624,Sit
2025-11-21 14:33:36.150502+00:00,-0.0059,0.7183,-0.69,-0.0277,-0.1314,-0.056,0.0655,-0.0046,-0.0217,130.7348,-133.3408,-0.6479,Sit
2025-11-21 14:33:36.250720+00:00,-0.021,0.7144,-0.7135,-0.1166,-0.09,-0.1405,0.0606,-0.018,-0.0119,131.0625,-133.8331,-0.8327,Sit
2025-11-21 14:33:36.350951+00:00,-0.0298,0.7315,-0.7081,-0.1407,0.0442,-0.1022,-0.0176,-0.0376,-0.0217,131.5429,-134.0815,-1.0564,Sit
2025-11-21 14:33:36.451159+00:00,0.0674,0.7345,-0.7247,0.8951,0.1099,-0.2576,0.035,-0.0302,0.0125,131.758,-134.1278,-1.0813,Sit
2025-11-21 14:33:36.550950+00:00,-0.0142,0.7257,-0.7227,-0.0089,0.1519,-0.1509,0.1523,-0.0144,-0.0217,131.104,-134.6686,-0.7674,Sit
2025-11-21 14:33:36.651362+00:00,-0.0146,0.713,-0.6988,0.0883,0.0439,0.1449,-0.0286,0.0394,-0.0583,131.0277,-135.3083,-0.7466,Sit
2025-11-21 14:33:36.751640+00:00,0.0073,0.712,-0.7486,0.2024,0.024,-0.2373,0.0606,-0.0034,-0.0168,131.2232,-135.6724,-0.9104,Sit
2025-11-21 14:33:36.851859+00:00,-0.0161,0.7022,-0.7315,-0.0926,-0.0587,-0.0634,0.0118,0.0003,-0.007,131.0602,-135.8667,-0.9028,Sit
2025-11-21 14:33:36.951995+00:00,-0.0181,0.7032,-0.7305,-0.0605,-0.0232,-0.0297,0.0203,-0.007,-0.0009,131.1564,-135.9724,-0.9685,Sit
2025-11-21 14:33:37.052361+00:00,-0.0103,0.7012,-0.7369,0.0342,0.0096,-0.0545,0.0276,-0.007,0.004,131.2659,-136.1522,-1.0029,Sit
2025-11-21 14:33:37.152456+00:00,-0.0059,0.7017,-0.7315,0.0471,-0.0024,0.0019,0.013,0.0003,0.004,131.2672,-136.304,-0.9742,Sit
2025-11-21 14:33:37.252854+00:00,-0.0093,0.7003,-0.734,0.0494,0.0047,0.0002,0.0142,-0.0009,-0.0021,131.131,-136.3765,-0.8918,Sit
2025-11-21 14:33:37.353009+00:00,-0.0156,0.6983,-0.7379,0.0006,0.0019,-0.0183,0.0191,-0.0107,-0.0046,131.1978,-136.4832,-0.9328,Sit
2025-11-21 14:33:37.453175+00:00,-0.0083,0.6988,-0.7379,0.026,-0.005,-0.0134,0.0179,-0.0095,-0.0046,131.3293,-136.5918,-1.0021,Sit
2025-11-21 14:33:37.553395+00:00,-0.0132,0.6949,-0.7364,-0.0045,-0.0051,0.0073,0.0118,-0.0021,-0.0082,131.3498,-136.6765,-1.0218,Sit
2025-11-21 14:33:37.653532+00:00,-0.0112,0.6959,-0.7398,-0.0027,-0.0022,-0.0113,0.0118,-0.0034,-0.0082,131.4143,-136.7581,-1.074,Sit
2025-11-21 14:33:37.753759+00:00,-0.0127,0.6949,-0.7359,0.0114,-0.0085,0.0445,0.002,0.0003,-0.0095,131.4284,-136.8022,-1.1075,Sit
2025-11-21 14:33:37.853970+00:00,-0.0156,0.6949,-0.7398,-0.0144,-0.0014,0.035,-0.009,0.0052,-0.0058,131.3888,-136.7955,-1.1323,Sit
2025-11-21 14:33:37.954439+00:00,-0.0142,0.6998,-0.7428,0.0125,0.0168,-0.0258,-0.0029,0.0052,-0.007,131.3468,-136.7643,-1.1406,Sit
2025-11-21 14:33:38.054646+00:00,-0.0083,0.6939,-0.7364,0.0505,0.0072,-0.0047,-0.0115,0.0101,-0.0107,131.263,-136.7317,-1.1375,Sit
2025-11-21 14:33:38.154741+00:00,-0.0166,0.6929,-0.7403,-0.0137,-0.0099,-0.0241,-0.0005,-0.0034,-0.0082,131.2256,-136.7006,-1.1607,Sit
2025-11-21 14:33:38.254883+00:00,-0.0156,0.6968,-0.7364,-0.0213,-0.0217,0.0033,-0.0041,-0.0046,-0.0046,131.2244,-136.6769,-1.1959,Sit
2025-11-21 14:33:38.355246+00:00,-0.0176,0.6973,-0.7359,-0.0202,0.0021,-0.0013,-0.0115,0.0027,-0.007,131.241,-136.6478,-1.2241,Sit
2025-11-21 14:33:38.455354+00:00,-0.0161,0.6978,-0.731,-0.0036,0.0091,0.0409,-0.0053,-0.0009,-0.0058,131.2289,-136.5854,-1.2428,Sit
2025-11-21 14:33:38.555645+00:00,-0.0132,0.6983,-0.7408,0.0147,0.0184,-0.0256,0.0118,-0.0034,0.0003,131.319,-136.6264,-1.2932,Sit
2025-11-21 14:33:38.655849+00:00,-0.0171,0.6983,-0.7379,0.0018,-0.0136,0.0237,0.0264,-0.0021,0.0003,131.3378,-136.7171,-1.3029,Sit
2025-11-21 14:33:38.756124+00:00,-0.021,0.6895,-0.7452,-0.0279,-0.0261,-0.0515,0.0264,-0.0021,0.0089,131.3631,-136.8862,-1.3103,Sit
2025-11-21 14:33:38.856400+00:00,-0.0137,0.691,-0.7413,0.0245,-0.0168,0.0004,0.0203,-0.0058,0.0027,131.3498,-137.0277,-1.2676,Sit
2025-11-21 14:33:38.956375+00:00,-0.0161,0.692,-0.7457,0.005,-0.0165,-0.0003,0.0276,-0.007,0.0027,131.3962,-137.1629,-1.2807,Sit
2025-11-21 14:33:39.056729+00:00,-0.0171,0.6856,-0.7486,0.0009,0.0128,-0.0186,0.0252,-0.0095,0.0027,131.444,-137.2856,-1.2835,Sit
2025-11-21 14:33:39.156956+00:00,-0.0166,0.689,-0.7486,0.0006,0.0191,-0.0158,0.0154,-0.0046,-0.0009,131.4781,-137.396,-1.2962,Sit
2025-11-21 14:33:39.257073+00:00,-0.0146,0.6871,-0.7501,0.0237,0.006,-0.0146,0.0118,-0.0058,0.0015,131.5112,-137.469,-1.3076,Sit
2025-11-21 14:33:39.357295+00:00,-0.0151,0.6856,-0.7496,0.046,0.0092,-0.0395,-0.0029,0.0003,0.0027,131.516,-137.526,-1.294,Sit
2025-11-21 14:33:39.457675+00:00,-0.02,0.6856,-0.7462,-0.0001,0.0061,0.0209,0.0118,-0.0046,0.0015,131.4992,-137.5263,-1.2886,Sit
2025-11-21 14:33:39.557758+00:00,-0.0142,0.6846,-0.7457,0.0295,-0.0046,0.0259,0.0057,0.0015,0.0003,131.4702,-137.5498,-1.2602,Sit
2025-11-21 14:33:39.657911+00:00,-0.0151,0.6885,-0.7496,0.0213,0.0272,-0.0151,0.0081,0.0052,-0.0009,131.4538,-137.5992,-1.2514,Sit
2025-11-21 14:33:39.758129+00:00,-0.0156,0.6846,-0.7481,0.0257,-0.0112,0.0095,0.0081,-0.0021,-0.0009,131.485,-137.6423,-1.2634,Sit
2025-11-21 14:33:39.858194+00:00,-0.0161,0.6817,-0.7506,0.0192,0.005,-0.0099,0.0008,0.0027,0.0003,131.5208,-137.7068,-1.2675,Sit
2025-11-21 14:33:39.958532+00:00,-0.0151,0.6817,-0.753,0.0163,-0.0022,-0.02,0.0081,-0.0009,0.0015,131.5259,-137.7317,-1.2642,Sit
2025-11-21 14:33:40.058762+00:00,-0.0166,0.6793,-0.7511,-0.0034,0.0057,0.015,0.002,-0.0009,0.0015,131.5287,-137.7631,-1.2581,Sit
2025-11-21 14:33:40.159056+00:00,-0.0142,0.6837,-0.7501,0.0172,0.0038,0.0215,0.0044,-0.0021,0.0003,131.5252,-137.7815,-1.2516,Sit
2025-11-21 14:33:40.259158+00:00,-0.0156,0.6822,-0.7545,0.0076,0.0006,-0.0095,0.0032,-0.0009,-0.0021,131.5622,-137.7982,-1.2681,Sit
2025-11-21 14:33:40.359404+00:00,-0.0176,0.6817,-0.7462,-0.0009,-0.0115,0.0367,-0.0041,0.0003,0.0027,131.5804,-137.8026,-1.2771,Sit
2025-11-21 14:33:40.459715+00:00,-0.02,0.6832,-0.7511,0.0165,0.0025,0.0028,-0.0005,0.0003,-0.0034,131.5549,-137.7979,-1.2641,Sit
2025-11-21 14:33:40.559721+00:00,-0.0176,0.6817,-0.7511,-0.0175,0.0004,0.0225,-0.0017,0.0027,-0.0046,131.5708,-137.7828,-1.2766,Sit
2025-11-21 14:33:40.660163+00:00,-0.0186,0.6802,-0.7545,-0.0092,-0.0214,-0.0302,-0.0115,0.0064,-0.0034,131.5749,-137.7519,-1.2864,Sit
2025-11-21 14:33:40.760327+00:00,-0.0176,0.6851,-0.7496,0.0,0.0013,0.0254,-0.009,0.0003,-0.0058,131.5317,-137.6666,-1.2834,Sit
2025-11-21 14:33:40.860184+00:00,-0.0171,0.6807,-0.7476,-0.0054,-0.01,-0.0035,-0.0151,0.004,-0.007,131.5293,-137.598,-1.3006,Sit
2025-11-21 14:33:40.960552+00:00,-0.0171,0.6851,-0.7491,-0.0162,-0.0054,0.0084,-0.0139,0.004,-0.0058,131.5088,-137.5383,-1.3111,Sit
2025-11-21 14:33:41.060930+00:00,-0.0181,0.6866,-0.7486,0.0171,-0.0038,0.0077,-0.0115,0.004,-0.0046,131.469,-137.4735,-1.3126,Sit
2025-11-21 14:33:41.161060+00:00,-0.0166,0.689,-0.7496,0.0083,-0.0059,-0.0211,-0.0102,0.0015,-0.0046,131.4361,-137.4142,-1.3188,Sit
2025-11-21 14:33:41.261036+00:00,-0.0181,0.6881,-0.7467,-0.0082,-0.0069,0.0161,-0.0115,0.0089,-0.0058,131.3911,-137.3417,-1.323,Sit
2025-11-21 14:33:41.361498+00:00,-0.02,0.6876,-0.7442,0.004,-0.023,0.022,-0.0041,0.0076,-0.007,131.3465,-137.2951,-1.3252,Sit
2025-11-21 14:33:41.461784+00:00,-0.0176,0.6876,-0.7384,-0.0148,-0.0297,0.0622,0.0032,0.0027,-0.0021,131.3642,-137.2859,-1.3464,Sit
2025-11-21 14:33:41.562009+00:00,-0.019,0.6861,-0.7432,-0.01,-0.003,0.0429,0.0044,-0.0009,0.0015,131.4076,-137.3261,-1.3653,Sit
2025-11-21 14:33:41.662406+00:00,-0.0161,0.689,-0.7467,-0.009,0.0179,-0.0287,0.0093,-0.0009,0.004,131.4181,-137.3943,-1.3531,Sit
2025-11-21 14:33:41.762508+00:00,-0.0186,0.6866,-0.7457,0.006,-0.0116,0.0032,0.0142,-0.0046,0.0064,131.4195,-137.4608,-1.3392,Sit
2025-11-21 14:33:41.862281+00:00,-0.0166,0.6856,-0.7462,0.0035,0.0161,0.049,0.0191,-0.007,0.004,131.444,-137.5527,-1.3348,Sit
2025-11-21 14:33:41.962867+00:00,-0.0176,0.6861,-0.753,-0.0209,-0.0014,-0.0208,0.0191,-0.0034,0.0064,131.496,-137.6713,-1.3473,Sit
2025-11-21 14:33:42.062980+00:00,-0.0151,0.6788,-0.7501,-0.0009,0.001,-0.0042,0.0166,-0.0034,0.0076,131.5159,-137.7593,-1.3342,Sit
2025-11-21 14:33:42.163222+00:00,-0.0156,0.6817,-0.754,-0.0005,0.0199,-0.0325,0.0081,-0.0034,0.0015,131.5254,-137.856,-1.3158,Sit
2025-11-21 14:33:42.263628+00:00,-0.0181,0.6798,-0.7511,0.0019,-0.0102,-0.0039,0.0069,-0.0021,0.0027,131.566,-137.92,-1.3164,Sit
2025-11-21 14:33:42.363701+00:00,-0.0171,0.6788,-0.7515,0.0076,0.0173,0.0127,0.0081,-0.007,0.0003,131.6024,-137.9762,-1.3206,Sit
2025-11-21 14:33:42.464197+00:00,-0.0166,0.6817,-0.7515,0.0085,0.0171,0.0239,0.0032,-0.0009,0.0015,131.5983,-137.9936,-1.3091,Sit
2025-11-21 14:33:42.564182+00:00,-0.0186,0.6802,-0.7535,-0.0105,0.0074,0.0102,0.0044,0.0027,0.0015,131.6048,-138.0135,-1.3093,Sit
2025-11-21 14:33:42.663996+00:00,-0.021,0.6798,-0.755,0.0162,-0.0023,-0.036,0.0044,-0.0034,-0.0058,131.6228,-138.049,-1.311,Sit
2025-11-21 14:33:42.764106+00:00,-0.0171,0.6773,-0.755,0.0065,0.0014,0.012,-0.0005,-0.0009,-0.0046,131.623,-138.054,-1.3099,Sit
2025-11-21 14:33:42.864181+00:00,-0.0156,0.6788,-0.752,-0.0008,0.0009,0.0071,0.0057,0.0003,0.0015,131.6537,-138.0515,-1.3275,Sit
2025-11-21 14:33:42.964649+00:00,-0.0181,0.6798,-0.7545,-0.0205,-0.0015,-0.0034,-0.0029,0.0015,-0.0034,131.6446,-138.0481,-1.3233,Sit
2025-11-21 14:33:43.064992+00:00,-0.0156,0.6802,-0.7564,0.0026,-0.0095,-0.0273,-0.009,0.0027,-0.0009,131.6911,-138.0259,-1.3545,Sit
2025-11-21 14:33:43.165295+00:00,-0.0176,0.6807,-0.7564,-0.0047,0.0015,-0.0513,-0.0151,0.004,-0.0082,131.6708,-137.9824,-1.3539,Sit
2025-11-21 14:33:43.265215+00:00,-0.019,0.6802,-0.753,0.0057,0.0074,-0.0026,-0.0127,0.0064,-0.0046,131.6491,-137.8964,-1.3631,Sit
2025-11-21 14:33:43.365545+00:00,-0.0181,0.6812,-0.7501,-0.0033,-0.0146,0.0222,-0.0151,0.0064,-0.0082,131.6146,-137.8168,-1.3684,Sit
2025-11-21 14:33:43.465947+00:00,-0.0176,0.6798,-0.7486,-0.0004,-0.0004,-0.0078,-0.0078,0.004,-0.0095,131.6063,-137.7723,-1.3927,Sit
2025-11-21 14:33:43.565683+00:00,-0.0176,0.6842,-0.7506,-0.004,0.0009,-0.0174,-0.0139,0.0027,-0.0058,131.6029,-137.7288,-1.4208,Sit
2025-11-21 14:33:43.666304+00:00,-0.02,0.6827,-0.754,-0.03,0.0112,0.0008,-0.009,0.0027,-0.0021,131.5949,-137.6706,-1.4437,Sit
2025-11-21 14:33:43.766321+00:00,-0.0161,0.6817,-0.7467,0.0059,-0.0262,0.0403,0.0008,0.0076,0.0003,131.5342,-137.6114,-1.4282,Sit
2025-11-21 14:33:43.866747+00:00,-0.0195,0.6861,-0.752,-0.0372,0.0061,-0.0173,0.0081,-0.0034,0.004,131.5188,-137.6347,-1.4265,Sit
2025-11-21 14:33:43.966719+00:00,-0.0234,0.6827,-0.7511,-0.013,-0.0174,0.0131,0.0166,-0.0058,0.004,131.546,-137.7023,-1.4273,Sit
2025-11-21 14:33:44.066995+00:00,-0.019,0.6802,-0.7471,-0.0026,0.0089,0.0215,0.013,-0.0034,0.0052,131.5933,-137.7851,-1.4317,Sit
2025-11-21 14:33:44.167170+00:00,-0.0176,0.6807,-0.754,0.0062,0.0026,-0.0318,0.0118,-0.0046,0.0101,131.6291,-137.8787,-1.4247,Sit
2025-11-21 14:33:44.267349+00:00,-0.019,0.6773,-0.755,-0.0093,0.0083,-0.012,0.0166,-0.0058,0.0064,131.6457,-137.9536,-1.4119,Sit
2025-11-21 14:33:44.367642+00:00,-0.0171,0.6783,-0.7545,-0.0114,0.0041,-0.0079,0.0118,-0.0009,0.0027,131.6585,-138.0452,-1.3948,Sit
2025-11-21 14:33:44.467389+00:00,-0.019,0.6783,-0.7579,-0.0035,-0.0004,-0.0359,0.0069,-0.0009,0.0027,131.6835,-138.1078,-1.3988,Sit
2025-11-21 14:33:44.568087+00:00,-0.0151,0.6754,-0.754,0.0232,-0.0226,-0.0004,0.0069,0.0015,0.0027,131.6845,-138.1588,-1.3838,Sit
2025-11-21 14:33:44.668260+00:00,-0.0195,0.6763,-0.7554,-0.0189,0.0289,0.0011,0.0069,-0.0034,0.0003,131.6962,-138.1911,-1.3872,Sit
2025-11-21 14:33:44.768266+00:00,-0.019,0.6768,-0.7554,-0.0009,-0.0156,0.0228,0.0081,-0.0046,0.0003,131.7291,-138.2254,-1.3969,Sit
2025-11-21 14:33:44.868533+00:00,-0.021,0.6754,-0.7525,-0.027,0.0182,0.031,0.0008,0.0003,-0.0009,131.7379,-138.2516,-1.3988,Sit
2025-11-21 14:33:44.968959+00:00,-0.0195,0.6768,-0.7574,-0.0083,0.0,0.0052,-0.0017,-0.0009,-0.0009,131.7671,-138.2585,-1.4132,Sit
2025-11-21 14:33:45.069023+00:00,-0.019,0.6719,-0.754,0.0071,-0.0166,0.0224,-0.0029,-0.0021,-0.0034,131.773,-138.2417,-1.4206,Sit
2025-11-21 14:33:45.169367+00:00,-0.0195,0.6749,-0.7564,-0.0096,-0.0216,0.0219,-0.0066,0.0015,-0.0034,131.7985,-138.2198,-1.4401,Sit
2025-11-21 14:33:45.269459+00:00,-0.0186,0.6778,-0.7569,-0.0022,-0.0032,-0.0226,-0.0102,0.0052,-0.0058,131.7875,-138.1817,-1.4434,Sit
2025-11-21 14:33:45.369688+00:00,-0.0176,0.6763,-0.7594,-0.0194,-0.0115,-0.0523,-0.0151,0.0027,-0.0034,131.7917,-138.1228,-1.4604,Sit
2025-11-21 14:33:45.469949+00:00,-0.0151,0.6807,-0.7511,0.0215,-0.0263,0.0293,-0.0176,0.0113,-0.007,131.6882,-138.0188,-1.4298,Sit
2025-11-21 14:33:45.570729+00:00,-0.021,0.6802,-0.754,-0.0002,-0.0057,-0.0263,-0.0151,0.0027,-0.007,131.6483,-137.9522,-1.4448,Sit
2025-11-21 14:33:45.670948+00:00,-0.0215,0.6802,-0.7525,-0.0174,-0.0229,-0.0005,-0.0078,0.0015,-0.0082,131.6202,-137.8796,-1.4608,Sit
2025-11-21 14:33:45.771059+00:00,-0.02,0.6817,-0.7457,0.0021,-0.0041,0.0469,-0.0115,0.0064,-0.007,131.6184,-137.8265,-1.4856,Sit
2025-11-21 14:33:45.871360+00:00,-0.0205,0.6822,-0.7511,0.0006,0.0043,0.011,-0.0029,0.0015,-0.0034,131.5999,-137.7847,-1.4943,Sit
2025-11-21 14:33:45.971390+00:00,-0.021,0.6832,-0.752,-0.0116,0.0057,0.016,0.0081,-0.0046,0.0027,131.6205,-137.7984,-1.5093,Sit
2025-11-21 14:33:46.071668+00:00,-0.021,0.6812,-0.7515,-0.0115,0.0014,-0.0013,0.0105,-0.0021,0.0027,131.6422,-137.8559,-1.509,Sit
2025-11-21 14:33:46.171855+00:00,-0.0195,0.6783,-0.7554,0.0186,-0.0003,-0.0226,0.0142,-0.0021,0.004,131.683,-137.9313,-1.5195,Sit
2025-11-21 14:33:46.271850+00:00,-0.0195,0.6802,-0.7569,-0.0031,0.0127,0.0091,0.0191,-0.0021,0.0076,131.7258,-138.0268,-1.5189,Sit
2025-11-21 14:33:46.372341+00:00,-0.02,0.6783,-0.7564,0.0255,0.0126,0.0098,0.0179,-0.0046,0.004,131.7016,-138.1299,-1.4764,Sit
2025-11-21 14:33:46.472674+00:00,-0.0161,0.6754,-0.7598,-0.0002,0.0102,-0.0337,0.0142,-0.0082,0.0076,131.7479,-138.2254,-1.4771,Sit
2025-11-21 14:33:46.572636+00:00,-0.0171,0.6749,-0.7608,0.0046,-0.0108,-0.0333,0.0118,-0.0046,0.0064,131.7625,-138.3061,-1.4579,Sit
2025-11-21 14:33:46.672976+00:00,-0.0166,0.6754,-0.7628,0.0009,0.0015,-0.0118,0.0118,-0.0046,0.0064,131.7684,-138.3643,-1.4446,Sit
2025-11-21 14:33:46.773049+00:00,-0.0181,0.6749,-0.7589,0.0066,0.0202,-0.0043,0.0069,-0.0021,0.0027,131.7772,-138.3972,-1.4339,Sit
2025-11-21 14:33:46.873242+00:00,-0.0161,0.6773,-0.7613,-0.0005,0.0109,-0.0256,0.0081,-0.0046,-0.0009,131.7885,-138.4397,-1.4326,Sit
2025-11-21 14:33:46.973504+00:00,-0.0186,0.6734,-0.7598,0.0114,0.0015,-0.0161,0.0057,-0.0021,0.0003,131.8033,-138.4765,-1.432,Sit
2025-11-21 14:33:47.073818+00:00,-0.0195,0.6715,-0.7608,-0.0186,-0.0245,0.0302,0.0069,-0.0021,0.0003,131.8228,-138.5118,-1.4374,Sit
2025-11-21 14:33:47.173994+00:00,-0.02,0.6705,-0.7633,0.0176,0.006,-0.0324,0.0081,-0.0009,0.0027,131.8456,-138.5488,-1.4409,Sit
2025-11-21 14:33:47.274255+00:00,-0.0186,0.6724,-0.7564,0.0072,0.0069,0.0116,0.002,-0.007,-0.0009,131.795,-138.556,-1.4113,Sit
2025-11-21 14:33:47.374558+00:00,-0.0156,0.6729,-0.7564,0.037,0.0095,0.0287,-0.0005,-0.0046,0.0015,131.8199,-138.5582,-1.4244,Sit
2025-11-21 14:33:47.474582+00:00,-0.02,0.671,-0.7637,-0.0113,0.0047,-0.0272,-0.0066,0.0027,0.0003,131.8483,-138.5641,-1.4386,Sit
2025-11-21 14:33:47.574884+00:00,-0.0186,0.6734,-0.7623,-0.0068,-0.0003,-0.0035,-0.0041,0.0015,-0.0046,131.8276,-138.5231,-1.4373,Sit
2025-11-21 14:33:47.675199+00:00,-0.022,0.6724,-0.7598,-0.0172,-0.0072,0.0101,-0.0066,0.0015,-0.0082,131.829,-138.4727,-1.4505,Sit
2025-11-21 14:33:47.775639+00:00,-0.0234,0.6715,-0.7628,-0.0332,-0.024,-0.0268,-0.0151,0.004,-0.0082,131.8507,-138.4196,-1.4756,Sit
2025-11-21 14:33:47.875507+00:00,-0.023,0.6744,-0.7633,-0.037,-0.0176,-0.0337,-0.0127,0.0089,-0.0034,131.8612,-138.3498,-1.5034,Sit
2025-11-21 14:33:47.975769+00:00,-0.0205,0.6749,-0.7564,0.0021,-0.0134,0.0058,-0.0102,0.0027,-0.0107,131.8022,-138.255,-1.494,Sit
2025-11-21 14:33:48.075997+00:00,-0.0161,0.6778,-0.7589,0.0273,0.0224,-0.0249,-0.0163,0.0052,-0.0058,131.748,-138.1681,-1.4868,Sit
2025-11-21 14:33:48.176189+00:00,-0.0195,0.6773,-0.7569,0.0014,0.0527,-0.0173,-0.0066,0.0015,-0.007,131.6495,-138.0786,-1.4737,Sit
2025-11-21 14:33:48.276535+00:00,-0.0205,0.6788,-0.752,-0.0025,-0.003,0.0178,-0.0139,0.0027,-0.0058,131.6454,-138.0082,-1.4999,Sit
2025-11-21 14:33:48.376776+00:00,-0.0181,0.6802,-0.7506,-0.0172,-0.0028,0.02,-0.0127,0.0052,-0.0058,131.6467,-137.9662,-1.5178,Sit
2025-11-21 14:33:48.477011+00:00,-0.0195,0.6812,-0.7569,-0.0042,0.0095,-0.0275,0.0057,0.0003,0.0027,131.6764,-137.9701,-1.5447,Sit
2025-11-21 14:33:48.577087+00:00,-0.0205,0.6768,-0.7554,-0.0133,0.0134,-0.0112,0.0105,-0.0009,0.0027,131.659,-138.0034,-1.5289,Sit
2025-11-21 14:33:48.677460+00:00,-0.021,0.6763,-0.7525,-0.0069,-0.0308,0.015,0.0166,-0.0058,0.0052,131.6783,-138.0816,-1.5207,Sit
2025-11-21 14:33:48.777656+00:00,-0.0195,0.6749,-0.7574,0.025,0.0093,0.0079,0.0166,-0.007,0.0052,131.7338,-138.1868,-1.5262,Sit
2025-11-21 14:33:48.877734+00:00,-0.0215,0.6793,-0.7574,-0.0043,0.0212,-0.0035,0.0166,-0.0034,0.004,131.7631,-138.2909,-1.5177,Sit
2025-11-21 14:33:48.977997+00:00,-0.0215,0.6729,-0.7618,-0.0103,0.0089,-0.0086,0.0154,-0.0046,0.0027,131.7535,-138.3849,-1.4873,Sit
2025-11-21 14:33:49.078306+00:00,-0.02,0.6763,-0.7633,0.0121,0.0284,-0.0275,0.0118,-0.0082,0.0052,131.8173,-138.4652,-1.4925,Sit
2025-11-21 14:33:49.178474+00:00,-0.0171,0.671,-0.7603,0.008,0.004,-0.0021,0.0081,-0.0009,0.0064,131.8375,-138.5154,-1.4802,Sit
2025-11-21 14:33:49.278667+00:00,-0.0186,0.6685,-0.7652,-0.0334,-0.012,-0.0273,0.0118,-0.0034,0.004,131.8385,-138.5703,-1.4689,Sit
2025-11-21 14:33:49.379014+00:00,-0.0195,0.6729,-0.7642,0.0123,0.0078,-0.0131,0.0044,-0.0009,0.0015,131.8271,-138.6053,-1.4534,Sit
2025-11-21 14:33:49.479134+00:00,-0.021,0.671,-0.7633,-0.0124,0.0257,-0.0064,0.0069,0.0015,0.0003,131.8188,-138.6357,-1.4459,Sit
2025-11-21 14:33:49.579360+00:00,-0.0171,0.6705,-0.7652,0.0103,0.0006,-0.0031,0.0032,-0.0009,0.0003,131.8412,-138.6645,-1.4549,Sit
2025-11-21 14:33:49.679677+00:00,-0.0181,0.671,-0.7652,-0.027,-0.0017,-0.0329,-0.0005,0.0015,0.0003,131.8624,-138.6893,-1.4604,Sit
2025-11-21 14:33:49.779983+00:00,-0.0161,0.671,-0.7589,0.0085,-0.0022,0.0205,0.0008,0.0015,-0.0009,131.8333,-138.7015,-1.4415,Sit
2025-11-21 14:33:49.880074+00:00,-0.0186,0.6695,-0.7662,0.0139,-0.0223,-0.0365,-0.0029,0.0003,0.0003,131.8476,-138.7162,-1.4457,Sit
2025-11-21 14:33:49.980279+00:00,-0.023,0.67,-0.7652,-0.0178,-0.0188,-0.0173,-0.0041,0.0027,-0.0046,131.8565,-138.6842,-1.4584,Sit
2025-11-21 14:33:50.080516+00:00,-0.0205,0.6695,-0.7594,-0.0145,-0.0115,0.0267,-0.0176,0.0064,-0.0082,131.8098,-138.6243,-1.4476,Sit
2025-11-21 14:33:50.180975+00:00,-0.0171,0.6754,-0.7598,0.0277,0.0098,0.0341,-0.0237,0.015,-0.0107,131.7995,-138.5292,-1.4666,Sit
2025-11-21 14:33:50.280940+00:00,-0.0171,0.6724,-0.7623,0.0379,0.0112,-0.0095,-0.02,0.0113,-0.0082,131.7547,-138.4237,-1.4741,Sit
2025-11-21 14:33:50.381135+00:00,-0.022,0.6768,-0.7545,-0.0101,-0.0029,0.0109,-0.0457,0.0247,-0.007,131.638,-138.2695,-1.4583,Sit
2025-11-21 14:33:50.481362+00:00,-0.0156,0.6788,-0.7501,0.0161,-0.0224,0.0188,-0.0261,0.015,0.0003,131.538,-138.0906,-1.4071,Sit
2025-11-21 14:33:50.581507+00:00,-0.0078,0.6822,-0.7628,0.0606,0.0102,-0.0326,-0.0212,0.0406,0.0052,131.2816,-137.9905,-1.3013,Sit
2025-11-21 14:33:50.681750+00:00,-0.0254,0.6807,-0.7691,-0.1029,-0.0057,-0.1357,-0.0347,0.048,0.0027,130.5546,-137.8415,-0.9722,Sit
2025-11-21 14:33:50.781950+00:00,-0.0083,0.6846,-0.7281,0.0128,-0.0218,0.1587,-0.064,0.0663,0.0284,129.9029,-137.5434,-0.6191,Sit
2025-11-21 14:33:50.882196+00:00,0.0015,0.6846,-0.7388,0.0087,-0.0345,0.0158,-0.0432,0.048,0.037,129.2335,-137.2531,-0.2222,Sit
2025-11-21 14:33:50.982591+00:00,0.0181,0.7076,-0.7564,0.1231,0.1572,-0.0375,0.0716,-0.0144,-0.0082,128.7985,-137.2576,0.0284,Sit
2025-11-21 14:33:51.082664+00:00,0.0439,0.6915,-0.7535,0.305,0.066,0.061,0.0753,0.0406,0.0125,128.3461,-137.5548,0.2357,Sit
2025-11-21 14:33:51.182880+00:00,-0.001,0.7535,-0.7384,-0.1833,0.4931,0.087,-0.257,0.2618,0.153,125.7328,-137.3583,1.6113,Sit
2025-11-21 14:33:51.283014+00:00,0.0166,0.6387,-0.7271,-0.2454,-0.7777,-0.0937,-0.4586,0.1445,0.2141,122.4185,-135.4468,4.0114,Sit
2025-11-21 14:33:51.383179+00:00,0.0703,0.7095,-0.5889,-0.1026,-0.2497,0.9725,0.0851,-0.0583,0.2447,119.5764,-133.4678,6.5257,Sit
2025-11-21 14:33:51.483404+00:00,-0.0029,0.6368,-0.9303,-0.5809,-0.4479,-1.6354,0.8474,-0.5825,-0.0241,122.0631,-136.7109,5.512,Sit
2025-11-21 14:33:51.583693+00:00,0.0259,0.6339,-0.7974,-0.4104,-0.3691,-0.5233,0.0008,-0.1707,0.0956,125.8776,-138.8525,3.5154,Sit
2025-11-21 14:33:51.683855+00:00,0.0566,0.7623,-0.7242,0.3328,0.9534,0.1089,-0.2436,0.037,-0.2819,128.3866,-138.2401,2.0519,Sit
2025-11-21 14:33:51.784144+00:00,0.0942,0.6744,-0.7374,0.7038,-0.0326,0.0658,0.0753,0.1384,-0.1964,128.1098,-137.6851,1.3713,Sit
2025-11-21 14:33:51.884121+00:00,0.0752,0.6583,-0.7696,0.4917,-0.0713,-0.285,0.0753,0.2569,-0.0779,125.2314,-138.0441,2.088,Sit
2025-11-21 14:33:51.984461+00:00,0.0689,0.546,-0.7745,0.3079,-0.9174,-0.319,-0.0872,-0.062,0.0553,122.052,-138.6487,3.6601,Sit
2025-11-21 14:33:52.084654+00:00,0.0615,0.6685,-0.7491,0.064,-0.0092,-0.0561,-0.0579,-0.0779,-0.0315,122.1966,-138.0468,3.643,Sit
2025-11-21 14:33:52.184759+00:00,0.0874,0.7237,-0.7379,0.3211,0.495,-0.0141,-0.0237,0.0663,0.0968,122.1872,-137.492,3.6289,Sit
2025-11-21 14:33:52.285083+00:00,0.0435,0.6983,-0.7276,-0.0862,0.1247,0.1597,0.024,-0.0425,0.1017,121.5903,-137.5592,4.4554,Sit
2025-11-21 14:33:52.385223+00:00,0.0396,0.6861,-0.7183,-0.1303,0.0462,0.201,-0.0579,-0.0706,0.0076,122.3624,-137.3849,4.2085,Sit
2025-11-21 14:33:52.485568+00:00,0.0557,0.691,-0.7491,0.1114,0.066,-0.0524,0.0093,0.0052,-0.0388,122.9196,-137.6094,3.745,Sit
2025-11-21 14:33:52.585220+00:00,0.0488,0.6837,-0.7486,0.0374,0.0301,-0.0544,-0.0005,-0.062,0.0186,122.9458,-137.7796,3.7052,Sit
2025-11-21 14:33:52.686119+00:00,0.0552,0.6959,-0.7515,0.0796,0.1703,-0.0129,0.0545,0.0101,-0.0009,123.0847,-137.955,3.7108,Sit
2025-11-21 14:33:52.786106+00:00,0.0469,0.6768,-0.7564,0.0442,0.0739,0.0703,0.0997,0.0015,-0.0241,123.1849,-138.2722,3.5719,Sit
2025-11-21 14:33:52.886461+00:00,0.0195,0.6607,-0.7408,-0.2552,-0.0334,0.1416,0.068,0.0113,-0.0913,123.671,-138.8151,3.155,Sit
2025-11-21 14:33:52.986722+00:00,0.0439,0.6607,-0.7564,0.09,0.0884,0.1123,0.0655,0.0541,-0.0583,123.4133,-139.2323,2.8902,Sit
2025-11-21 14:33:53.086818+00:00,0.1445,0.627,-0.794,0.8841,-0.2661,-0.2076,-0.0774,-0.0327,0.0589,122.2167,-139.9525,3.684,Sit
2025-11-21 14:33:53.186925+00:00,0.0332,0.6675,-0.734,-0.2014,0.1939,0.2002,-0.0835,-0.0449,-0.029,122.4642,-139.4103,3.461,Sit
2025-11-21 14:33:53.287209+00:00,0.0659,0.6129,-0.7598,0.2342,-0.4898,0.1824,0.173,-0.1891,0.0589,122.7317,-138.6388,3.0856,Sit
2025-11-21 14:33:53.387543+00:00,0.0386,0.6656,-0.7916,-0.1086,0.2006,-0.2291,0.0899,0.0382,-0.0547,123.1014,-139.9119,2.928,Sit
2025-11-21 14:33:53.487653+00:00,-0.0078,0.6524,-0.773,-0.4076,-0.0483,0.0852,-0.0505,0.0663,-0.1268,123.0288,-139.9064,2.656,Sit
2025-11-21 14:33:53.587890+00:00,0.1162,0.6089,-0.7545,0.5927,-0.4267,0.1077,-0.1153,-0.0119,0.0895,122.1561,-139.6782,2.9274,Sit
2025-11-21 14:33:53.688355+00:00,0.0239,0.6885,-0.7711,-0.2596,0.2154,-0.0202,-0.0053,-0.0021,-0.0339,121.3974,-139.6194,3.5642,Sit
2025-11-21 14:33:53.788390+00:00,0.0132,0.6558,-0.7432,-0.2338,-0.058,0.148,0.1009,-0.1891,0.0834,121.923,-139.2006,3.3313,Sit
2025-11-21 14:33:53.888719+00:00,0.04,0.6314,-0.8038,0.021,-0.1805,-0.1905,0.1352,-0.0522,0.0553,123.8099,-139.9673,2.6347,Sit
2025-11-21 14:33:53.988851+00:00,0.0278,0.6339,-0.8111,-0.0747,-0.1147,-0.2321,0.0313,0.0211,0.0528,123.881,-140.6623,2.7984,Sit
2025-11-21 14:33:54.089160+00:00,0.022,0.6295,-0.7916,-0.1963,-0.1608,-0.0694,-0.1324,0.0724,-0.0192,123.665,-140.4688,3.0283,Sit
2025-11-21 14:33:54.189387+00:00,0.0308,0.69,-0.7305,-0.0698,0.2312,0.3132,-0.2815,0.2886,-0.2868,122.2931,-139.2937,3.3177,Sit
2025-11-21 14:33:54.289373+00:00,0.1675,0.6822,-0.7872,1.2307,-0.1468,-0.1481,0.1461,0.0614,0.0724,120.0818,-138.6619,3.5486,Sit
2025-11-21 14:33:54.389710+00:00,0.064,0.6373,-0.797,-0.1461,-0.2193,-0.09,0.0008,0.0003,0.0675,117.6089,-139.1104,5.0272,Sit
2025-11-21 14:33:54.490002+00:00,0.1851,0.6583,-0.7955,1.0201,0.0021,-0.2555,0.1376,0.0993,0.0846,116.7722,-139.3428,5.5912,Sit
2025-11-21 14:33:54.590114+00:00,-0.0093,0.6353,-0.8072,-0.7781,-0.2004,-0.3243,0.0985,0.0467,-0.1353,116.3218,-140.0136,5.539,Sit
2025-11-21 14:33:54.690484+00:00,0.0523,0.6304,-0.7852,-0.1217,-0.1609,-0.0524,0.0411,-0.0669,0.0492,117.7256,-140.3156,4.6571,Sit
2025-11-21 14:33:54.790765+00:00,0.0776,0.6348,-0.7843,0.1028,-0.0954,-0.0303,0.0142,0.0076,0.0015,118.2737,-140.499,4.5983,Sit
2025-11-21 14:33:54.890948+00:00,0.0708,0.6627,-0.7652,0.0457,0.1457,0.1574,0.0191,0.0565,-0.0412,117.509,-140.4938,4.7843,Sit
2025-11-21 14:33:54.991036+00:00,0.0942,0.649,-0.7872,0.2344,0.0424,-0.0288,0.0655,0.0712,-0.0192,116.3844,-140.4912,5.2216,Sit
2025-11-21 14:33:55.091277+00:00,0.0625,0.6549,-0.7847,-0.0825,0.1004,-0.0073,-0.0151,-0.0119,0.0284,116.1148,-140.7536,5.3962,Sit
2025-11-21 14:33:55.191406+00:00,0.0923,0.6353,-0.7887,0.1408,-0.0923,-0.0072,0.0008,-0.0046,0.0418,116.2458,-140.8481,5.4217,Sit
2025-11-21 14:33:55.291658+00:00,0.0493,0.6514,-0.7769,-0.2182,0.0675,0.0812,-0.009,-0.0095,-0.0058,116.1784,-140.8763,5.553,Sit
2025-11-21 14:33:55.391821+00:00,0.1074,0.6148,-0.795,0.3295,-0.2334,-0.0508,0.0154,0.0027,-0.0217,116.7394,-140.7847,5.2216,Sit
2025-11-21 14:33:55.492064+00:00,0.0689,0.6514,-0.8018,0.0009,0.1323,-0.1903,0.0081,0.0101,-0.0009,116.2366,-141.0761,5.4237,Sit
2025-11-21 14:33:55.592317+00:00,0.1084,0.6285,-0.7789,0.266,-0.0991,0.1902,0.0008,0.0003,0.0199,116.6424,-141.0422,5.2539,Sit
2025-11-21 14:33:55.692510+00:00,0.0723,0.6505,-0.7764,0.0272,0.0655,-0.0307,-0.009,0.0186,0.0064,116.0458,-141.1311,5.5752,Sit
2025-11-21 14:33:55.792839+00:00,0.1118,0.6382,-0.8248,0.2446,-0.0419,-0.3404,-0.0872,0.0052,0.037,116.965,-141.1738,5.2489,Sit
2025-11-21 14:33:55.892971+00:00,0.105,0.6509,-0.7574,0.2888,0.0939,0.3353,0.0325,0.0076,-0.0608,116.0548,-140.8173,5.7022,Sit
2025-11-21 14:33:55.993338+00:00,0.064,0.6407,-0.794,-0.1824,0.0188,-0.1195,0.0472,-0.0131,-0.0315,116.5958,-141.0251,5.2299,Sit
2025-11-21 14:33:56.093455+00:00,0.0718,0.6348,-0.7887,0.0859,-0.0713,0.0062,0.0166,-0.0254,-0.04,117.1385,-141.1742,4.8696,Sit
2025-11-21 14:33:56.193660+00:00,0.0112,0.6339,-0.7603,-0.3967,-0.103,0.1958,-0.0139,-0.073,0.026,118.4333,-141.3465,4.1597,Sit
2025-11-21 14:33:56.293779+00:00,0.1182,0.6226,-0.8375,0.6201,-0.114,-0.5385,-0.0115,-0.0486,0.0089,120.1556,-141.509,3.4075,Sit
2025-11-21 14:33:56.394068+00:00,0.0439,0.6607,-0.7857,-0.0728,0.2365,0.1934,0.0582,-0.0302,-0.0205,119.9842,-141.4874,3.5239,Sit
2025-11-21 14:33:56.494300+00:00,0.0396,0.6382,-0.7882,-0.0149,0.1058,0.0993,0.0741,-0.0547,-0.0302,120.325,-141.6999,3.1976,Sit
2025-11-21 14:33:56.594313+00:00,0.0483,0.6299,-0.8663,0.0958,0.082,-0.5817,0.0606,-0.0254,-0.0192,120.6949,-142.4126,2.9208,Sit
2025-11-21 14:33:56.694730+00:00,0.0464,0.6075,-0.796,0.0343,-0.0651,0.0536,0.0399,-0.0266,-0.0168,121.3367,-142.3133,2.5685,Sit
2025-11-21 14:33:56.795285+00:00,0.0288,0.6148,-0.8136,-0.073,-0.0739,-0.1784,-0.0383,0.004,0.0052,120.8876,-142.5408,2.8157,Sit
2025-11-21 14:33:56.895271+00:00,0.0493,0.6148,-0.7896,0.0344,-0.0339,0.0933,0.002,-0.0009,0.0027,121.0227,-142.4158,2.7014,Sit
2025-11-21 14:33:56.995712+00:00,0.0366,0.6182,-0.8097,-0.0376,-0.0148,-0.0859,-0.0163,0.0406,-0.0119,120.5331,-142.5685,2.9396,Sit
2025-11-21 14:33:57.095883+00:00,0.02,0.6241,-0.7847,-0.2202,0.0703,0.1735,0.013,-0.0046,0.0186,120.7176,-142.4963,2.775,Sit
2025-11-21 14:33:57.196315+00:00,0.0469,0.6085,-0.8287,0.0472,-0.0738,-0.2322,0.0191,0.0235,-0.0021,120.3422,-142.7518,3.0291,Sit
2025-11-21 14:33:57.296207+00:00,0.0273,0.6143,-0.8014,-0.153,-0.005,0.0896,0.0105,0.0137,-0.0205,120.3826,-142.7074,2.9539,Sit
2025-11-21 14:33:57.397200+00:00,0.0591,0.6158,-0.8121,0.153,-0.0052,-0.0164,-0.0029,0.0467,-0.0596,120.1372,-142.7077,2.9833,Sit
2025-11-21 14:33:57.497627+00:00,0.0249,0.6295,-0.7984,-0.1688,0.0579,0.0588,-0.0713,0.0137,-0.0388,120.1983,-142.5594,2.7766,Sit
2025-11-21 14:33:57.597621+00:00,0.0371,0.629,-0.8082,-0.0311,0.0276,-0.01,-0.0237,0.0186,-0.007,120.6327,-142.3751,2.4316,Sit
2025-11-21 14:33:57.698131+00:00,0.0273,0.6202,-0.8072,-0.0424,0.0099,-0.0278,-0.0029,0.0089,0.0015,120.6429,-142.4024,2.3902,Sit
2025-11-21 14:33:57.798234+00:00,0.0254,0.6109,-0.8082,-0.0726,-0.0742,-0.0124,0.0093,0.015,0.0211,120.587,-142.4724,2.4152,Sit
2025-11-21 14:33:57.898435+00:00,0.0278,0.6246,-0.8004,-0.0893,0.0241,0.0531,0.0069,-0.0009,0.0186,120.5945,-142.5091,2.4499,Sit
2025-11-21 14:33:57.998543+00:00,0.0493,0.6192,-0.817,0.1265,0.0044,-0.0626,0.0252,0.0174,-0.0034,120.3112,-142.5006,2.621,Sit
2025-11-21 14:33:58.098585+00:00,0.0322,0.6212,-0.8043,-0.0396,-0.0033,0.0534,0.0105,0.0137,-0.0119,119.9906,-142.5109,2.7301,Sit
2025-11-21 14:33:58.198728+00:00,0.0298,0.606,-0.8165,-0.0297,-0.0884,-0.0554,0.0228,0.0027,0.0076,120.0307,-142.5355,2.6938,Sit
2025-11-21 14:33:58.299270+00:00,0.0527,0.6202,-0.8175,0.1238,0.0632,-0.1065,-0.0261,0.0089,-0.0217,119.9007,-142.6837,2.784,Sit
2025-11-21 14:33:58.399152+00:00,0.0728,0.6138,-0.795,0.2407,0.0324,0.0814,0.0179,-0.0144,0.0284,119.9558,-142.4663,2.7111,Sit
2025-11-21 14:33:58.499412+00:00,0.0396,0.6207,-0.8263,-0.0359,0.0304,-0.1728,0.0166,-0.0021,-0.0095,119.5383,-142.7222,2.973,Sit
2025-11-21 14:33:58.599751+00:00,0.0425,0.6114,-0.8009,0.0074,-0.0015,0.0785,0.0044,-0.029,0.0027,120.254,-142.6752,2.5301,Sit
2025-11-21 14:33:58.699634+00:00,0.0444,0.6202,-0.8189,0.0656,0.0106,-0.12,-0.0188,0.0223,-0.0107,119.9898,-142.7616,2.7132,Sit
2025-11-21 14:33:58.800126+00:00,0.043,0.6153,-0.7818,0.0206,0.008,0.2298,-0.0127,-0.0095,-0.0021,120.1231,-142.5135,2.5546,Sit
2025-11-21 14:33:58.900275+00:00,0.0322,0.6182,-0.8204,-0.067,-0.0284,-0.1627,-0.0102,0.0089,-0.0034,119.9559,-142.5804,2.635,Sit
2025-11-21 14:33:59.000484+00:00,0.0425,0.6192,-0.7945,0.0307,-0.0129,0.1186,-0.0017,-0.0107,0.0064,120.1025,-142.4986,2.5515,Sit
2025-11-21 14:33:59.100480+00:00,0.0386,0.6202,-0.8194,-0.0037,0.0002,-0.1373,-0.0078,0.0101,-0.0144,119.9388,-142.59,2.625,Sit
2025-11-21 14:33:59.200749+00:00,0.0293,0.6216,-0.7974,-0.0427,0.0112,0.0742,-0.02,0.0064,-0.0217,119.9881,-142.4777,2.5346,Sit
2025-11-21 14:33:59.300905+00:00,0.0454,0.6168,-0.8194,0.097,0.0003,-0.1245,0.0008,0.0003,-0.0009,119.8769,-142.4902,2.5526,Sit
2025-11-21 14:33:59.401280+00:00,0.0166,0.6182,-0.7921,-0.1608,0.0067,0.1333,-0.009,0.0125,-0.0168,119.9792,-142.4429,2.5055,Sit
2025-11-21 14:33:59.502476+00:00,0.043,0.6202,-0.8053,0.0674,0.0117,-0.0102,0.0008,0.0076,-0.0009,119.9731,-142.4414,2.457,Sit
2025-11-21 14:33:59.603353+00:00,0.0342,0.6197,-0.8009,-0.047,-0.013,0.0344,-0.0102,0.0076,-0.0095,119.8043,-142.4181,2.5312,Sit
2025-11-21 14:33:59.704093+00:00,0.0366,0.6221,-0.7994,0.0028,0.0133,0.0483,-0.0017,0.0015,-0.0046,119.7936,-142.3576,2.5179,Sit
2025-11-21 14:33:59.804094+00:00,0.0352,0.6207,-0.8048,-0.0079,0.0002,-0.009,-0.0041,0.0064,-0.0107,119.8115,-142.3605,2.491,Sit
2025-11-21 14:33:59.903984+00:00,0.0356,0.6212,-0.8048,-0.0233,0.0094,-0.0071,-0.0041,0.0076,0.004,119.7484,-142.3491,2.4996,Sit
2025-11-21 14:34:00.004367+00:00,0.0361,0.6207,-0.7994,-0.01,0.0016,0.0528,-0.0041,0.0003,0.0015,119.6714,-142.3282,2.5426,Sit
2025-11-21 14:34:00.104780+00:00,0.0352,0.6226,-0.8038,0.0159,-0.0011,-0.0089,-0.0017,-0.007,-0.0046,119.6248,-142.3094,2.5634,Sit
2025-11-21 14:34:00.204867+00:00,0.0332,0.6202,-0.8087,-0.0504,-0.0221,-0.0414,-0.0041,-0.0095,0.0003,119.7401,-142.325,2.5058,Sit
2025-11-21 14:34:00.304965+00:00,0.0366,0.6197,-0.8014,0.0517,-0.0328,0.0788,-0.0005,0.0064,-0.0021,119.6977,-142.2642,2.5138,Sit
2025-11-21 14:34:00.405274+00:00,0.0347,0.6192,-0.797,0.0025,-0.0025,0.0361,-0.0151,0.0211,-0.0144,119.5954,-142.2216,2.5591,Sit
2025-11-21 14:34:00.505256+00:00,0.0464,0.6246,-0.8023,0.0982,0.0216,0.0609,0.0228,0.004,0.0003,119.4698,-142.1824,2.614,Sit
2025-11-21 14:34:00.608134+00:00,0.0322,0.6143,-0.8018,-0.0361,-0.0705,0.032,0.0032,0.0199,-0.0034,119.4076,-142.2655,2.6477,Sit
2025-11-21 14:34:00.708444+00:00,0.0352,0.6231,-0.7994,-0.0386,0.0258,0.006,-0.0005,-0.0058,0.0101,119.5241,-142.3074,2.5968,Sit
2025-11-21 14:34:00.808746+00:00,0.0381,0.6182,-0.8087,0.0331,-0.0457,-0.0429,0.0093,0.0101,-0.0046,119.4463,-142.3293,2.6447,Sit
2025-11-21 14:34:00.909049+00:00,0.0239,0.6226,-0.7979,-0.113,-0.0142,0.0509,-0.009,0.0211,-0.0119,119.2635,-142.3217,2.6871,Sit
2025-11-21 14:34:01.009222+00:00,0.0654,0.6153,-0.8014,0.2469,-0.0914,-0.0046,0.0166,-0.029,0.0382,119.346,-142.26,2.6623,Sit
2025-11-21 14:34:01.109397+00:00,0.0269,0.6285,-0.7979,-0.1427,0.0375,0.02,-0.0261,0.0272,-0.0302,119.2213,-142.3047,2.7844,Sit
2025-11-21 14:34:01.209535+00:00,0.0361,0.6265,-0.8028,-0.0247,0.0246,0.0481,0.0093,-0.0119,0.0089,119.2433,-142.2536,2.657,Sit
2025-11-21 14:34:01.309940+00:00,0.0356,0.6109,-0.8194,-0.0092,-0.0414,-0.1229,-0.0005,0.0015,0.0284,119.1391,-142.4641,2.8568,Sit
2025-11-21 14:34:01.413091+00:00,0.0322,0.628,-0.7847,-0.1316,0.0814,0.1537,0.0179,0.0101,-0.0205,119.3885,-142.4034,2.6627,Sit
2025-11-21 14:34:01.510448+00:00,0.0479,0.6168,-0.8258,0.0682,-0.0132,-0.183,0.0093,0.0064,0.0199,119.0549,-142.4908,2.8812,Sit
2025-11-21 14:34:01.610734+00:00,0.0313,0.6231,-0.793,-0.1051,0.0387,0.1089,-0.0163,0.004,-0.0168,119.1738,-142.4958,2.7997,Sit
2025-11-21 14:34:01.711027+00:00,0.0527,0.6182,-0.8184,0.1517,-0.02,-0.1423,0.0044,-0.0058,0.0247,119.0536,-142.4559,2.8875,Sit
2025-11-21 14:34:01.811198+00:00,0.0264,0.6216,-0.8004,-0.1628,0.0473,-0.0145,-0.0212,0.0125,-0.0437,119.2461,-142.5209,2.789,Sit
2025-11-21 14:34:01.911439+00:00,0.0649,0.6094,-0.8155,0.2659,-0.115,-0.1001,0.002,-0.0131,0.0235,119.1737,-142.4303,2.777,Sit
2025-11-21 14:34:02.011638+00:00,0.0254,0.6304,-0.7926,-0.1749,0.1091,0.114,-0.0102,0.0174,-0.0095,119.1503,-142.4542,2.8196,Sit
2025-11-21 14:34:02.111808+00:00,0.0737,0.6129,-0.8077,0.331,-0.0903,-0.0159,0.0228,-0.0119,0.0235,118.969,-142.3613,2.8971,Sit
2025-11-21 14:34:02.212087+00:00,0.0171,0.6207,-0.8092,-0.2404,0.0139,-0.0276,-0.0041,0.0162,-0.029,118.964,-142.5364,2.9356,Sit
2025-11-21 14:34:02.312291+00:00,0.0703,0.6065,-0.8053,0.268,-0.0943,0.0704,0.0215,-0.0229,0.0296,119.221,-142.4432,2.7468,Sit
2025-11-21 14:34:02.412487+00:00,0.0225,0.6236,-0.8126,-0.1737,0.0393,-0.0417,-0.0176,0.0137,-0.0254,118.9928,-142.6193,2.9253,Sit
2025-11-21 14:34:02.512674+00:00,0.0679,0.6119,-0.794,0.2424,-0.0869,0.1538,0.0057,-0.0192,0.0125,119.2371,-142.4473,2.7272,Sit
2025-11-21 14:34:02.612757+00:00,0.023,0.6246,-0.8145,-0.1284,0.0498,-0.0982,-0.0066,0.0089,-0.0205,119.045,-142.5496,2.8456,Sit
2025-11-21 14:34:02.713105+00:00,0.0547,0.6124,-0.7974,0.1341,-0.0628,0.1166,0.0032,-0.0168,0.0064,119.282,-142.4099,2.6704,Sit
2025-11-21 14:34:02.813436+00:00,0.0239,0.6256,-0.8057,-0.1566,0.0137,-0.0185,-0.0029,0.015,-0.0192,119.2066,-142.488,2.7139,Sit
2025-11-21 14:34:02.913626+00:00,0.0508,0.6168,-0.8038,0.1299,-0.0454,0.0541,0.0057,-0.0131,0.0089,119.2795,-142.3906,2.6424,Sit
2025-11-21 14:34:03.013811+00:00,0.0303,0.6295,-0.8053,-0.068,0.0691,-0.0115,0.002,-0.0034,0.0076,119.295,-142.4409,2.6665,Sit
2025-11-21 14:34:03.113963+00:00,0.0405,0.6285,-0.8092,0.0281,0.0116,-0.0523,0.0374,0.0211,-0.018,119.1674,-142.3698,2.6951,Sit
2025-11-21 14:34:03.214206+00:00,0.0557,0.5972,-0.8341,0.1458,-0.193,-0.1382,0.0313,0.0406,0.0199,118.6664,-142.722,2.9142,Sit
2025-11-21 14:34:03.314693+00:00,0.0371,0.5889,-0.8277,-0.0492,-0.2149,-0.1347,-0.0286,0.0321,-0.0351,118.0472,-142.9984,3.1583,Sit
2025-11-21 14:34:03.414474+00:00,0.063,0.5923,-0.7965,0.0861,-0.2056,0.1623,0.0032,0.0638,0.004,117.2775,-142.9881,3.4971,Sit
2025-11-21 14:34:03.515071+00:00,0.0679,0.6153,-0.8067,0.1326,0.0073,0.035,0.0032,0.0089,0.0162,116.2873,-143.0748,4.0419,Sit
2025-11-21 14:34:03.614880+00:00,0.0347,0.6353,-0.7764,-0.2127,0.1763,0.2748,-0.0896,-0.04,-0.0119,116.8618,-142.6183,3.7078,Sit
2025-11-21 14:34:03.715090+00:00,-0.0117,0.6275,-0.8111,-0.4152,-0.0027,-0.164,-0.1862,-0.106,0.0382,118.5885,-141.5108,2.8727,Sit
2025-11-21 14:34:03.815395+00:00,0.0557,0.6387,-0.7594,0.2791,0.0045,0.2809,-0.0286,-0.073,0.0528,119.7768,-140.9038,2.579,Sit
2025-11-21 14:34:03.915678+00:00,0.0527,0.6544,-0.7877,0.1346,0.1972,0.0015,0.1095,0.0834,-0.0156,120.1556,-141.1102,2.509,Sit
2025-11-21 14:34:04.015763+00:00,0.0996,0.6241,-0.8077,0.4584,-0.1015,-0.1506,0.0215,0.23,-0.1206,117.592,-141.5415,3.3809,Sit
2025-11-21 14:34:04.116176999+00:00,0.0962,0.5933,-0.7345,0.3523,-0.34,0.4537,-0.0615,-0.2208,0.1359,115.8646,-141.449,4.0623,Sit
2025-11-21 14:34:04.216381+00:00,-0.0454,0.6192,-0.7496,-1.1226,0.0294,0.7548,-0.1654,-0.1231,0.0773,120.4061,-140.8711,2.2816,Sit
2025-11-21 14:34:04.316588999+00:00,0.1558,0.607,-0.7828,1.1753,-0.2565,-0.0253,-0.0383,-0.2098,0.1164,120.6183,-142.0098,2.3285,Sit
2025-11-21 14:34:04.416801+00:00,0.0781,0.7398,-0.6363,0.2136,1.1683,1.3251,-0.356,-0.1109,0.1213,119.0789,-142.0964,3.0115,Sit
2025-11-21 14:34:04.517084+00:00,0.0508,0.6148,-0.7511,0.0005,-0.1559,0.3776,0.0961,0.0382,-0.0535,119.9037,-141.8575,2.7777,Sit
2025-11-21 14:34:04.617258+00:00,0.0254,0.6075,-0.8228,-0.0906,-0.1831,-0.2631,-0.0163,-0.0376,-0.0095,119.8799,-142.1672,2.801,Sit
2025-11-21 14:34:04.717714+00:00,0.0088,0.6304,-0.7838,-0.2551,0.0185,0.1721,-0.009,-0.0376,-0.0009,120.3407,-141.8904,2.6321,Sit
2025-11-21 14:34:04.818505+00:00,0.0464,0.6549,-0.7891,0.0784,0.2491,0.1203,-0.0139,-0.0046,-0.0009,120.599,-141.8994,2.5033,Sit
2025-11-21 14:34:04.918730+00:00,0.0264,0.6251,-0.7891,-0.0738,-0.0483,0.0952,0.0008,-0.0192,-0.0339,120.6895,-141.7549,2.4131,Sit
2025-11-21 14:34:05.018613+00:00,0.0161,0.6295,-0.795,-0.1355,0.0004,0.0294,-0.0041,-0.0107,0.0015,121.138,-141.7588,2.1294,Sit
2025-11-21 14:34:05.118834+00:00,0.0288,0.6339,-0.793,-0.0322,0.0276,0.0382,-0.0261,-0.0095,0.0223,121.5014,-141.6781,1.9881,Sit
2025-11-21 14:34:05.219058+00:00,0.0225,0.6358,-0.7828,-0.0496,-0.0285,0.0754,-0.0933,0.0553,-0.0131,121.7226,-141.4877,1.9368,Sit
2025-11-21 14:34:05.319205999+00:00,0.0405,0.6387,-0.7847,0.0941,0.0202,0.0723,0.0069,0.0663,-0.0241,121.1136,-141.2864,2.1303,Sit
2025-11-21 14:34:05.419415+00:00,0.0552,0.6368,-0.793,0.189,0.065,-0.0438,0.0472,-0.0278,-0.0046,120.3545,-141.2932,2.395,Sit
2025-11-21 14:34:05.519830+00:00,0.0503,0.6382,-0.814,0.146,0.0602,-0.1913,0.0179,0.0321,-0.0571,120.163,-141.5804,2.4226,Sit
2025-11-21 14:34:05.619564999+00:00,0.0107,0.627,-0.7911,-0.2157,-0.0674,0.039,-0.009,0.0052,-0.0437,120.0048,-141.5335,2.2877,Sit
2025-11-21 14:34:05.719950+00:00,0.0098,0.6256,-0.8043,-0.1828,-0.0777,-0.0498,0.0203,-0.0657,-0.0119,120.8676,-141.5099,1.763,Sit
2025-11-21 14:34:05.820017+00:00,-0.0015,0.6226,-0.7867,-0.1646,-0.0882,0.0687,0.0105,-0.0192,0.0076,121.5514,-141.638,1.3655,Sit
2025-11-21 14:34:05.920520999+00:00,0.0239,0.6265,-0.8248,0.0698,0.014,-0.2089,0.0044,-0.0412,0.004,121.7428,-141.811,1.349,Sit
2025-11-21 14:34:06.020846+00:00,0.0117,0.6343,-0.7945,-0.028,0.0141,0.0463,-0.0664,-0.0681,0.0284,122.5061,-141.6393,1.0773,Sit
2025-11-21 14:34:06.120926+00:00,0.0103,0.6373,-0.7725,-0.0394,0.0358,0.151,-0.1177,-0.007,0.0699,123.4101,-141.1391,0.8113,Sit
2025-11-21 14:34:06.220985+00:00,0.0122,0.649,-0.796,0.0131,0.0861,-0.0435,-0.0591,0.0822,0.0467,122.6215,-140.6004,1.3332,Sit
2025-11-21 14:34:06.321430+00:00,0.1182,0.6759,-0.7945,-0.0423,-0.1939,-0.5384,-1.0866,2.0675,0.1909,112.2174,-138.3316,6.6225,Sit
2025-11-21 14:34:06.421306+00:00,0.2163,0.7491,-0.6719,0.1504,0.1023,0.1233,-0.4879,0.6808,0.015,97.2777,-134.0876,14.9344,Sit
2025-11-21 14:34:06.521777+00:00,0.2881,0.795,-0.6075,0.9339,0.2455,0.4319,-0.1752,0.5977,-0.6839,93.1298,-131.7569,16.8026,Sit
2025-11-21 14:34:06.621736999+00:00,0.3116,0.9063,-0.6641,1.2542,0.9583,-0.6638,-0.323,1.4175,-1.1836,86.5837,-129.0739,16.9533,Sit
2025-11-21 14:34:06.722216+00:00,0.126,0.7691,-0.6387,-0.2438,-0.3414,-0.96,-0.5551,0.6222,-0.8464,76.9783,-125.6014,12.4074,Sit
2025-11-21 14:34:06.822727+00:00,-0.0889,0.6632,-0.4024,-1.8015,-2.1754,1.0077,-0.0579,-0.0913,-0.514,81.6911,-120.9646,8.5565,Sit
2025-11-21 14:34:06.922652+00:00,0.0439,0.8433,-0.4439,-0.7364,-0.4668,0.4257,-0.1495,-0.5654,-0.0767,80.2182,-119.8814,7.5988,Sit
2025-11-21 14:34:07.022895+00:00,0.0498,0.8809,-0.5074,0.0316,-0.086,-0.1777,0.0228,-0.7462,-0.2294,90.48,-119.3582,4.1085,Sit
2025-11-21 14:34:07.123028+00:00,-0.021,0.8834,-0.4639,-0.3973,-0.1497,0.2185,-0.1972,-0.0938,-0.1158,96.4521,-118.7461,1.5832,Sit
2025-11-21 14:34:07.223366999+00:00,-0.0186,0.9063,-0.4092,-0.2163,-0.0973,0.6444,-0.0481,-0.1268,-0.0412,98.0604,-117.5761,0.8165,Sit
2025-11-21 14:34:07.323445+00:00,-0.0039,0.8404,-0.4102,-0.11,-0.5647,0.6213,0.1596,-0.1475,0.0541,98.3345,-117.7794,0.8261,Sit
2025-11-21 14:34:07.423739+00:00,0.042,0.9039,-0.5787,0.3707,0.3974,-0.7798,0.2708,-0.1035,0.1286,100.943,-119.2872,0.3795,Sit
2025-11-21 14:34:07.523773+00:00,0.0244,0.877,-0.525,0.393,0.0175,-0.2562,-0.13,-0.0144,-0.1524,100.3955,-120.1734,1.0204,Sit
2025-11-21 14:34:07.623824+00:00,-0.0527,0.8038,-0.3882,-0.6556,-0.6327,0.8794,0.4186,-0.2135,0.1225,102.6068,-120.1432,-0.1284,Sit
2025-11-21 14:34:07.724157+00:00,0.0234,0.8263,-0.6368,0.4799,-0.221,-1.0074,0.3172,-0.5483,0.0406,108.2668,-123.3054,-1.4406,Sit
2025-11-21 14:34:07.824342+00:00,-0.0571,0.8453,-0.65,-0.1129,0.0236,-0.665,-0.1336,0.0443,-0.2074,111.3006,-123.9501,-2.8925,Sit
2025-11-21 14:34:07.924418+00:00,-0.0698,0.8976,-0.4869,-0.2339,0.137,0.6996,-0.3633,0.2117,-0.3296,111.7303,-121.9387,-3.8769,Sit
2025-11-21 14:34:08.024682+00:00,-0.1709,0.9576,-0.5274,-0.9521,0.428,-1.18,-1.0426,1.3686,-0.31,104.3759,-117.5114,-3.4285,Sit
2025-11-21 14:34:08.124993+00:00,-0.0679,0.7266,-0.3579,-0.7225,-2.2181,0.6363,-0.5429,0.3021,0.1616,97.6667,-116.309,-1.7348,Sit
2025-11-21 14:34:08.225086+00:00,-0.0889,0.8834,-0.1963,-0.5225,-0.829,1.4,-1.3981,0.2642,-0.3601,94.7391,-109.9999,-1.3598,Sit
2025-11-21 14:34:08.325356+00:00,-0.1318,0.9762,-0.4156,-0.6047,1.0013,-0.6109,0.6067,-0.3552,-0.1891,101.5696,-109.85,-4.2103,Sit
2025-11-21 14:34:08.425573+00:00,-0.0635,0.9688,-0.2857,0.2757,0.275,-0.1328,-0.4293,0.0321,-0.2599,102.8814,-110.149,-5.1696,Sit
2025-11-21 14:34:08.525876+00:00,-0.1358,0.9205,-0.3531,-0.445,-0.1942,0.1276,0.3074,0.1823,-0.007,103.6276,-110.0499,-6.0623,Sit
2025-11-21 14:34:08.625626999+00:00,-0.1201,0.9435,-0.2691,-0.0743,0.0929,0.7358,0.2146,0.0186,-0.1744,103.3358,-110.8339,-6.2835,Sit
2025-11-21 14:34:08.726386+00:00,-0.1162,0.9264,-0.3457,-0.2284,-0.0463,-0.1043,0.0411,-0.0278,0.1298,104.6406,-111.955,-6.7092,Sit
2025-11-21 14:34:08.826764+00:00,-0.1074,0.919,-0.4366,-0.0654,0.0721,0.2438,0.7191,-0.0913,0.048,105.6654,-114.0072,-6.7748,Sit
2025-11-21 14:34:08.926831+00:00,0.001,0.9806,-0.3609,1.108,0.8693,0.3855,-0.4158,-0.0351,-0.1671,104.7525,-113.9403,-6.3657,Sit
2025-11-21 14:34:09.027045+00:00,-0.1167,0.9601,-0.3526,-0.0521,0.3138,-0.0019,-0.3975,0.0357,-0.0816,105.5139,-111.862,-7.0357,Sit
2025-11-21 14:34:09.127955+00:00,-0.2212,0.8917,-0.4957,-0.7417,-0.3572,-1.284,-0.3487,-0.0131,0.0712,106.372,-110.3726,-7.4496,Sit
2025-11-21 14:34:09.228263+00:00,-0.106,0.9527,-0.211,0.2786,-0.0841,0.5808,-0.582,-0.0107,-0.0107,105.038,-107.125,-6.5965,Sit
2025-11-21 14:34:09.328549+00:00,-0.0874,0.9127,0.439,1.0023,-0.0446,2.0706,-1.0157,0.4829,-0.409,105.3031,-103.2129,-6.7254,Sit
2025-11-21 14:34:09.428684+00:00,-0.1558,1.0553,-0.0908,-0.4264,0.7155,0.2604,-0.6883,-0.0828,0.1885,101.797,-99.454,-6.5837,Sit
2025-11-21 14:34:09.529224+00:00,-0.0264,1.047,-0.0728,0.5754,0.4792,-0.2827,-0.3181,-0.0681,0.0321,103.1409,-97.293,-6.2765,Sit
2025-11-21 14:34:09.628679+00:00,0.0137,1.0025,-0.0967,0.6669,-0.0743,0.0198,-0.0286,-0.051,0.0101,102.8427,-96.7969,-6.2252,Sit
2025-11-21 14:34:09.729132+00:00,-0.1123,1.0143,0.0127,-0.0358,0.0804,0.1515,-0.549,-0.1329,0.109,103.7865,-96.3235,-6.271,Sit
2025-11-21 14:34:09.829492+00:00,-0.1387,0.9615,-0.1152,-0.4381,-0.486,-0.9035,-0.0823,-0.1304,0.0651,103.6676,-84.1403,-5.8307,Sit
2025-11-21 14:34:09.929795+00:00,-0.0674,0.9635,0.0381,0.2307,-0.2767,0.0157,-0.213,-0.0156,-0.0706,102.7215,-84.1722,-5.52,Sit
2025-11-21 14:34:10.030082+00:00,-0.1143,0.9894,0.0513,-0.2552,-0.0362,-0.0595,-0.1507,0.0553,-0.0376,102.8376,-83.2337,-6.0608,Sit
2025-11-21 14:34:10.130104+00:00,-0.1216,1.0045,0.0972,-0.0929,0.0538,0.1685,-0.1715,0.0626,-0.0425,102.4133,-82.5386,-6.2906,Sit
2025-11-21 14:34:10.230460+00:00,-0.1123,0.9825,0.1157,0.021,-0.1172,0.1707,-0.0005,-0.0095,0.037,102.1608,-82.0711,-6.4328,Sit
2025-11-21 14:34:10.330666+00:00,-0.0869,0.9874,0.0503,0.2562,0.0144,-0.1185,0.046,-0.0131,0.0089,101.7282,-82.3933,-6.1634,Sit
2025-11-21 14:34:10.430895+00:00,-0.1318,0.9806,0.0498,-0.3176,-0.0683,-0.3019,-0.1715,-0.0205,-0.0681,102.2535,-82.1893,-6.3409,Sit
2025-11-21 14:34:10.531331+00:00,-0.1167,0.9684,0.1802,0.0291,-0.1634,0.6561,-0.1605,0.0651,-0.0571,102.077,-80.9508,-6.7583,Sit
2025-11-21 14:34:10.630981+00:00,-0.1255,0.9855,0.1465,0.0112,0.0566,0.2157,-0.1923,0.2043,0.0199,101.2602,-80.0569,-6.9586,Sit
2025-11-21 14:34:10.731423+00:00,-0.1172,0.9781,0.1983,-0.0097,0.0102,0.5584,0.0044,0.0162,-0.0119,100.2737,-79.3477,-7.0862,Sit
2025-11-21 14:34:10.831926+00:00,-0.1284,0.9786,0.1411,-0.0968,-0.0084,0.0504,0.0338,0.0027,-0.0376,100.4699,-79.2379,-7.2889,Sit
2025-11-21 14:34:10.932210+00:00,-0.1387,0.9703,0.1328,-0.0916,-0.0819,-0.0176,-0.0139,0.026,0.0076,100.8229,-79.2082,-7.5067,Sit
2025-11-21 14:34:11.032025+00:00,-0.1216,0.9757,0.1304,-0.002,-0.0514,-0.0556,-0.0432,0.0602,-0.0046,100.7266,-79.1811,-7.5423,Sit
2025-11-21 14:34:11.132295+00:00,-0.1304,0.9708,0.1494,0.0276,-0.0541,0.1498,-0.0115,0.0113,-0.0107,100.5015,-78.9313,-7.646,Sit
2025-11-21 14:34:11.232487+00:00,-0.1504,0.9684,0.1353,-0.18,-0.0448,-0.0918,-0.031,0.0431,-0.0082,100.5409,-78.8032,-7.7429,Sit
2025-11-21 14:34:11.332796+00:00,-0.1367,0.9752,0.1504,-0.0117,0.0012,0.0155,-0.0322,0.0993,-0.0205,100.2693,-78.649,-7.8679,Sit
2025-11-21 14:34:11.433551+00:00,-0.1421,0.9581,0.1514,-0.0864,-0.1598,0.11,-0.0017,0.0064,-0.0119,100.2693,-78.453,-8.1317,Sit
2025-11-21 14:34:11.533421+00:00,-0.1362,0.9693,0.1382,0.0752,-0.0125,0.0399,0.002,0.0015,0.0101,100.3246,-78.3562,-8.1951,Sit
2025-11-21 14:34:11.633212+00:00,-0.1411,0.9713,0.1445,-0.0131,0.0016,0.0007,-0.0053,0.0076,-0.0388,100.3249,-78.3578,-8.1974,Sit
2025-11-21 14:34:11.733523+00:00,-0.1299,0.9815,0.1392,0.1021,0.0789,-0.0272,0.0435,-0.029,-0.0583,100.7083,-78.252,-8.3856,Sit
2025-11-21 14:34:11.833769+00:00,-0.1514,0.9557,0.1553,-0.125,-0.0819,0.0419,-0.1043,0.0199,-0.0192,101.5211,-77.9429,-8.7935,Sit
2025-11-21 14:34:11.933956+00:00,-0.1651,0.962,0.1592,-0.1416,-0.0318,0.0356,-0.0163,-0.0205,-0.0034,101.619,-77.4779,-9.045,Sit
2025-11-21 14:34:12.034002+00:00,-0.1587,0.9693,0.1558,0.0067,0.032,0.0189,-0.0127,0.0089,0.0027,101.5836,-77.413,-9.0403,Sit
2025-11-21 14:34:12.134525+00:00,-0.1577,0.9659,0.1568,-0.0417,0.0044,-0.0297,-0.009,0.0003,-0.0082,101.5247,-77.4364,-9.0197,Sit
2025-11-21 14:34:12.234799+00:00,-0.1577,0.9664,0.146,0.0561,-0.0362,0.0155,0.0081,0.0113,-0.007,101.5292,-77.4264,-9.0464,Sit
2025-11-21 14:34:12.334987+00:00,-0.1558,0.9635,0.1568,-0.003,-0.0129,0.0331,0.0081,0.0015,0.0015,101.5619,-77.4369,-9.078,Sit
2025-11-21 14:34:12.435159+00:00,-0.1636,0.9659,0.1358,-0.0337,-0.0283,-0.0829,0.0264,0.0052,-0.0131,101.5799,-77.4701,-9.0936,Sit
2025-11-21 14:34:12.535388+00:00,-0.1514,0.9718,0.1445,0.0824,0.0045,0.1051,0.0142,0.0113,-0.0107,101.5546,-77.4843,-9.0907,Sit
2025-11-21 14:34:12.635142+00:00,-0.1519,0.9674,0.1504,-0.006,0.013,0.0027,0.0105,-0.0009,-0.0021,101.6008,-77.5085,-9.1161,Sit
2025-11-21 14:34:12.736181+00:00,-0.1582,0.9737,0.1426,-0.0305,0.0516,-0.0944,-0.0102,-0.0119,0.0052,101.6184,-77.5714,-9.113,Sit
2025-11-21 14:34:12.837336+00:00,-0.1611,0.9703,0.147,-0.0785,0.0447,-0.1189,-0.0078,-0.0095,0.015,101.6543,-77.6297,-9.096,Sit
2025-11-21 14:34:12.936489+00:00,-0.1528,0.9669,0.1402,-0.0081,-0.0118,-0.0106,0.0264,-0.0058,0.0064,101.4884,-77.675,-8.9859,Sit
2025-11-21 14:34:13.036792+00:00,-0.1519,0.9703,0.1538,0.0718,0.0193,0.0605,0.0044,0.0027,-0.007,101.3793,-77.7699,-8.8919,Sit
2025-11-21 14:34:13.136966+00:00,-0.1499,0.9728,0.1411,-0.0134,0.0069,-0.0546,0.0118,-0.0095,0.0027,101.5429,-77.8226,-8.9501,Sit
2025-11-21 14:34:13.237213+00:00,-0.1538,0.9762,0.1533,-0.0769,0.0357,0.0037,0.0166,-0.0192,0.0186,101.6095,-77.9043,-8.9237,Sit
2025-11-21 14:34:13.337479+00:00,-0.1558,0.9723,0.1157,-0.1607,-0.0403,-0.2526,0.0753,0.0003,0.0785,101.6426,-78.2631,-8.7844,Sit
2025-11-21 14:34:13.437726+00:00,-0.1577,0.9718,0.1177,-0.0953,0.0125,-0.1937,-0.0005,0.0162,0.0895,101.0769,-78.8323,-8.356,Sit
2025-11-21 14:34:13.537612+00:00,-0.148,0.9718,0.1167,-0.1501,-0.0133,-0.1739,-0.0322,-0.0046,0.0858,100.1537,-79.2289,-7.8252,Sit
2025-11-21 14:34:13.637852+00:00,-0.1235,0.9864,0.1284,-0.025,0.1174,-0.055,0.0667,-0.0437,0.0101,99.6289,-79.6038,-7.4378,Sit
2025-11-21 14:34:13.738281+00:00,-0.1152,0.983,0.1079,-0.009,0.0523,-0.1073,0.0203,-0.0119,0.0308,99.7136,-79.904,-7.3252,Sit
2025-11-21 14:34:13.838377+00:00,-0.1177,0.9772,0.1113,0.0654,0.0191,-0.0547,-0.0053,-0.0131,-0.0144,99.6756,-80.0216,-7.2269,Sit
2025-11-21 14:34:13.938820+00:00,-0.1172,0.982,0.1079,0.0957,0.0666,-0.0838,-0.0347,0.0003,-0.0131,99.7769,-79.9235,-7.2834,Sit
2025-11-21 14:34:14.038890+00:00,-0.1231,0.9806,0.1318,0.0307,0.0511,0.1072,-0.0359,-0.0009,-0.0119,99.8545,-79.7319,-7.3669,Sit
2025-11-21 14:34:14.139221+00:00,-0.1206,0.9781,0.1299,-0.0033,0.0181,-0.0388,-0.0359,-0.0046,-0.0058,99.9823,-79.5284,-7.47,Sit
2025-11-21 14:34:14.239389+00:00,-0.1304,0.9718,0.1436,-0.0045,-0.017,0.1106,0.0118,-0.0095,-0.0119,100.116,-79.3847,-7.5587,Sit
2025-11-21 14:34:14.339601+00:00,-0.1406,0.9723,0.1255,-0.1118,-0.0364,-0.0487,0.0533,-0.0205,0.0003,100.2422,-79.4359,-7.5995,Sit
2025-11-21 14:34:14.439916+00:00,-0.1289,0.9776,0.1055,0.0174,0.0413,-0.1036,0.0264,-0.0021,-0.0046,100.5203,-79.6706,-7.5863,Sit
2025-11-21 14:34:14.540067+00:00,-0.1299,0.9742,0.0972,0.021,-0.0453,-0.0991,-0.0848,0.0308,0.0467,100.2852,-79.685,-7.4675,Sit
2025-11-21 14:34:14.640131+00:00,-0.1509,0.9669,0.1128,-0.1948,-0.0352,-0.1647,-0.0652,-0.0009,-0.0131,99.8525,-79.335,-7.3358,Sit
2025-11-21 14:34:14.740492+00:00,-0.1118,0.9674,0.1973,0.0266,-0.0752,0.5318,0.0093,-0.0437,0.0516,99.5938,-78.9308,-7.2114,Sit
2025-11-21 14:34:14.840582+00:00,-0.1235,0.9732,0.1538,-0.0488,0.0296,-0.1517,-0.0615,0.0003,-0.007,99.5015,-79.0084,-7.0783,Sit
2025-11-21 14:34:14.940955+00:00,-0.1294,0.9547,0.1651,0.0372,-0.1182,0.4371,0.1119,0.0382,-0.1573,99.3952,-78.7182,-7.1507,Sit
2025-11-21 14:34:15.041204+00:00,-0.127,0.9723,0.1704,0.033,0.013,0.261,0.0435,0.0101,-0.0498,99.989,-78.7442,-7.5394,Sit
2025-11-21 14:34:15.141457+00:00,-0.1489,0.9728,0.2842,-0.0916,0.044,0.9695,-0.1837,-0.0217,-0.0107,100.6838,-78.2919,-7.953,Sit
2025-11-21 14:34:15.241636+00:00,-0.1275,0.9762,0.103,0.0684,0.0082,-0.3923,-0.0542,0.0003,0.0626,100.3492,-78.1674,-7.8443,Sit
2025-11-21 14:34:15.341752+00:00,-0.1294,0.964,0.169,-0.0139,-0.0394,0.1112,-0.1226,-0.0681,0.0321,99.93,-77.9113,-7.5181,Sit
2025-11-21 14:34:15.441980+00:00,-0.1377,0.9581,0.1631,-0.1777,-0.0817,0.0876,-0.0212,-0.0742,0.0076,99.8488,-77.4544,-7.2435,Sit
2025-11-21 14:34:15.542005+00:00,-0.1597,0.963,0.1695,-0.2811,0.0011,-0.0404,-0.0493,0.0223,0.0687,99.9766,-77.2743,-7.1201,Sit
2025-11-21 14:34:15.642675+00:00,-0.0977,0.9669,0.23,0.1426,0.0072,0.3834,-0.0273,0.048,0.037,98.7118,-77.3013,-6.5159,Sit
2025-11-21 14:34:15.743137+00:00,-0.1211,0.9855,0.1465,-0.0709,0.1359,-0.3374,0.024,0.0736,-0.0315,98.275,-77.3001,-6.4928,Sit
2025-11-21 14:34:15.842905+00:00,-0.1377,0.9679,0.1504,-0.2733,-0.0535,-0.2684,-0.0273,0.1579,0.0333,98.1037,-77.3727,-6.7276,Sit
2025-11-21 14:34:15.943130+00:00,-0.1279,0.962,0.1963,-0.1276,-0.0541,0.1823,0.0643,0.208,0.0162,97.282,-77.376,-6.7425,Sit
2025-11-21 14:34:16.043265+00:00,-0.1133,0.9698,0.1665,0.0303,0.0059,-0.0542,0.0509,0.1005,-0.1011,96.5279,-77.6911,-6.9035,Sit
2025-11-21 14:34:16.143459+00:00,-0.1553,0.9615,0.1738,-0.3382,-0.114,-0.1034,-0.053,0.0186,-0.0278,97.4451,-77.4965,-7.6118,Sit
2025-11-21 14:34:16.243666+00:00,-0.1377,0.9664,0.2002,-0.0776,0.0312,0.2357,-0.0249,-0.0095,0.0015,97.8151,-77.2118,-7.8689,Sit
2025-11-21 14:34:16.343873+00:00,-0.1441,0.9679,0.1836,-0.0279,0.0652,0.1292,-0.0127,0.0052,0.0296,97.7839,-77.1884,-7.8786,Sit
2025-11-21 14:34:16.443702+00:00,-0.1216,0.9703,0.2041,0.1194,0.048,0.2379,0.0374,-0.0119,0.0015,97.5212,-77.2177,-7.7194,Sit
2025-11-21 14:34:16.543910+00:00,-0.1304,0.9659,0.1504,-0.0239,-0.0453,-0.0755,0.1156,-0.0034,-0.007,97.5547,-77.5409,-7.6789,Sit
2025-11-21 14:34:16.643952+00:00,-0.1289,0.9772,0.1621,0.0808,0.0826,-0.019,-0.0041,0.0211,-0.04,97.7179,-77.855,-7.7295,Sit
2025-11-21 14:34:16.744306+00:00,-0.1382,0.9645,0.1431,-0.0402,-0.0405,-0.1791,0.0118,0.0199,-0.0107,97.8329,-77.7367,-7.9206,Sit
2025-11-21 14:34:16.844418+00:00,-0.1519,0.9498,0.1641,-0.1416,-0.1483,0.0885,-0.0347,0.037,-0.0217,97.9677,-77.5851,-8.0952,Sit
2025-11-21 14:34:16.945092+00:00,-0.1499,0.9879,0.1831,-0.0515,0.1759,0.0615,-0.0261,0.0064,-0.1243,98.3523,-77.1471,-8.4314,Sit
2025-11-21 14:34:17.045037+00:00,-0.1348,0.9762,0.1621,0.2263,0.0623,-0.02,0.2109,0.0467,-0.2184,99.266,-76.977,-9.0831,Sit
2025-11-21 14:34:17.145452+00:00,-0.2051,0.922,0.1318,-0.2743,-0.3732,-0.3178,-0.0811,0.0528,0.0015,101.2133,-76.687,-10.2948,Sit
2025-11-21 14:34:17.245582+00:00,-0.1753,0.9635,0.2071,0.0084,0.0696,0.525,-0.1617,0.0516,-0.0266,100.6751,-76.1906,-10.2995,Sit
2025-11-21 14:34:17.345804+00:00,-0.1895,0.964,0.1846,-0.114,0.0551,0.0692,-0.0689,0.0137,0.0064,100.4507,-75.607,-10.4892,Sit
2025-11-21 14:34:17.445978+00:00,-0.1763,0.964,0.1924,0.0033,0.0354,0.2419,0.0264,-0.0107,0.0089,100.2496,-75.5046,-10.4262,Sit
2025-11-21 14:34:17.546074+00:00,-0.1724,0.9649,0.1836,-0.0017,0.0841,0.0143,-0.0383,-0.0021,-0.0278,100.3262,-75.5162,-10.4235,Sit
2025-11-21 14:34:17.646116+00:00,-0.1763,0.9586,0.1856,-0.0235,-0.0222,0.0608,-0.0432,0.0064,0.0052,100.3237,-75.2799,-10.4784,Sit
2025-11-21 14:34:17.746754+00:00,-0.1699,0.9571,0.1831,0.1097,-0.0005,-0.0045,-0.0066,0.0027,-0.007,100.1403,-75.2534,-10.4153,Sit
2025-11-21 14:34:17.846625+00:00,-0.1748,0.9688,0.2007,0.003,0.0749,0.0358,-0.0176,0.015,-0.029,100.2242,-75.1718,-10.498,Sit
2025-11-21 14:34:17.947091+00:00,-0.1792,0.9596,0.1909,-0.0395,0.0172,0.091,-0.0029,0.0443,-0.0473,100.4398,-74.9847,-10.7576,Sit
2025-11-21 14:34:18.047362+00:00,-0.1934,0.9361,0.1426,-0.0279,-0.1517,-0.1225,0.0606,0.1213,-0.0889,100.586,-74.7067,-11.2609,Sit
2025-11-21 14:34:18.147671+00:00,-0.1533,0.984,0.166,0.4391,0.2747,-0.0141,0.0142,0.0211,-0.1573,101.2859,-74.5218,-11.7835,Sit
2025-11-21 14:34:18.247695+00:00,-0.2124,0.9361,0.1524,-0.1299,-0.1997,-0.1219,-0.0554,0.0382,-0.1402,102.868,-73.7759,-12.811,Sit
2025-11-21 14:34:18.347831+00:00,-0.2559,0.9659,0.189,-0.1816,0.1358,0.1607,-0.0261,-0.0241,-0.1475,103.9853,-72.9668,-13.6191,Sit
2025-11-21 14:34:18.448042+00:00,-0.2569,0.9576,0.1563,-0.1336,0.1446,-0.2896,-0.0823,-0.0425,-0.0681,105.0983,-72.4139,-14.257,Sit
2025-11-21 14:34:18.548199+00:00,-0.23,0.9454,0.2022,0.1212,0.0738,0.1556,-0.031,0.0284,0.0089,105.3236,-71.8697,-14.4957,Sit
2025-11-21 14:34:18.648430+00:00,-0.2158,0.9239,0.1939,0.256,-0.1777,0.114,0.0252,0.0724,-0.0363,105.0199,-71.8426,-14.4888,Sit
2025-11-21 14:34:18.748682+00:00,-0.2315,0.9566,0.2183,0.1185,0.1912,0.5355,0.2402,0.048,-0.1194,105.3387,-71.8026,-14.8266,Sit
2025-11-21 14:34:18.848446+00:00,-0.2754,0.9342,0.147,-0.1978,-0.0827,-0.3082,-0.1116,0.0614,-0.0131,107.379,-71.8884,-15.66,Sit
2025-11-21 14:34:18.948968+00:00,-0.3018,0.9347,0.1128,-0.152,0.045,-0.4673,-0.053,0.0418,-0.0889,107.3282,-71.6513,-15.8673,Sit
2025-11-21 14:34:19.049058+00:00,-0.2559,0.9547,0.1768,0.1566,0.1173,-0.2822,-0.1801,-0.0107,-0.0302,107.7071,-71.1672,-16.2821,Sit
2025-11-21 14:34:19.149209+00:00,-0.2842,0.9361,0.1992,-0.004,0.0908,0.2073,-0.0078,-0.0974,-0.0046,107.8432,-70.6301,-16.4724,Sit
2025-11-21 14:34:19.249451+00:00,-0.2661,0.9356,0.1958,0.1602,0.0834,0.0094,0.0044,-0.0816,-0.0034,108.0364,-70.6883,-16.2482,Sit
2025-11-21 14:34:19.349674+00:00,-0.2574,0.94,0.1802,0.1344,0.0789,-0.018,-0.0102,-0.0754,-0.0254,108.2323,-70.6762,-16.2226,Sit
2025-11-21 14:34:19.449959+00:00,-0.2676,0.9425,0.1953,-0.0195,0.0171,0.1562,-0.0041,0.0101,-0.0168,108.6928,-70.4979,-16.3629,Sit
2025-11-21 14:34:19.549972+00:00,-0.2661,0.94,0.1778,0.0848,-0.0361,0.0321,0.0081,0.026,-0.0327,108.7226,-70.4277,-16.4433,Sit
2025-11-21 14:34:19.650221+00:00,-0.2867,0.9259,0.19,-0.0293,-0.0264,0.0191,-0.0041,0.0015,0.0137,108.9743,-70.2825,-16.6556,Sit
2025-11-21 14:34:19.751180+00:00,-0.2818,0.9259,0.1944,-0.0182,-0.0956,0.1254,0.0191,0.0186,-0.0034,108.8835,-70.3442,-16.606,Sit
2025-11-21 14:34:19.851144+00:00,-0.294,0.9317,0.1909,-0.1159,-0.0454,-0.0572,-0.0115,0.0064,-0.0046,108.9745,-70.4211,-16.6258,Sit
2025-11-21 14:34:19.951214+00:00,-0.2832,0.9317,0.1861,-0.1211,-0.0219,-0.0729,-0.0249,0.0162,0.004,108.9732,-70.3463,-16.7024,Sit
2025-11-21 14:34:20.051354+00:00,-0.2891,0.9298,0.1817,-0.0334,-0.0562,0.0431,0.0521,0.004,0.0015,108.8879,-70.3152,-16.7308,Sit
2025-11-21 14:34:20.151669+00:00,-0.2793,0.9332,0.1577,-0.0203,-0.0519,-0.1595,0.0484,0.0113,-0.029,109.0008,-70.4821,-16.7022,Sit
2025-11-21 14:34:20.251424+00:00,-0.2901,0.9278,0.1611,-0.0148,-0.0465,-0.1157,-0.031,0.0296,-0.0192,109.1961,-70.4391,-16.8469,Sit
2025-11-21 14:34:20.351553+00:00,-0.3081,0.9107,0.1538,-0.2974,-0.1474,-0.2291,-0.0567,0.0431,-0.0315,109.4208,-70.164,-17.0853,Sit
2025-11-21 14:34:20.451913+00:00,-0.2705,0.9376,0.167,0.3837,0.1485,0.1689,0.283,-0.1316,-0.3467,109.9272,-69.8207,-17.4508,Sit
2025-11-21 14:34:20.551771+00:00,-0.3531,0.8927,0.1377,-0.2981,-0.1932,-0.0494,0.1975,-0.0351,0.1249,113.4124,-68.9173,-18.9508,Sit
2025-11-21 14:34:20.651976+00:00,-0.2769,0.9376,0.1245,0.1532,0.0828,0.0513,0.4064,0.0015,0.2251,112.6528,-70.2642,-17.8957,Sit
2025-11-21 14:34:20.752300+00:00,-0.2202,0.9474,0.1299,0.4036,0.0576,0.0159,0.1535,0.0211,-0.0669,112.0047,-72.0083,-16.7506,Sit
2025-11-21 14:34:20.852494+00:00,-0.3106,0.9371,0.1314,-0.2163,0.0241,0.5686,0.2133,0.0907,0.0504,112.6166,-72.0033,-16.9804,Sit
2025-11-21 14:34:20.952415+00:00,-0.2818,0.9327,0.1441,-0.048,-0.1588,0.3515,-0.086,0.0308,0.0895,111.9613,-72.4391,-16.6234,Sit
2025-11-21 14:34:21.053589+00:00,-0.2676,0.9498,0.1685,0.1564,0.0813,0.6447,-0.1984,-0.04,-0.0229,111.3377,-72.5416,-16.388,Sit
2025-11-21 14:34:21.152744+00:00,-0.3052,0.9415,0.0874,-0.2058,-0.0158,-0.3279,-0.1202,-0.062,0.1029,110.6079,-72.2715,-16.2619,Sit
2025-11-21 14:34:21.253078+00:00,-0.2417,0.9469,0.1055,0.2571,-0.029,-0.4273,-0.3059,-0.0131,-0.0632,109.4974,-72.5026,-15.6631,Sit
2025-11-21 14:34:21.353706+00:00,-0.2456,0.9361,0.168,0.1782,-0.0466,0.0993,-0.1373,0.0137,0.142,108.4023,-71.5051,-15.7968,Sit
2025-11-21 14:34:21.453804+00:00,-0.2383,0.9605,0.1821,0.1005,0.0727,0.038,0.0863,-0.0192,0.1359,106.9662,-72.1615,-14.7929,Sit
2025-11-21 14:34:21.553930+00:00,-0.2603,0.9635,0.1309,-0.1035,0.0536,-0.1802,-0.0432,0.0932,0.0675,106.3534,-72.6898,-14.3798,Sit
2025-11-21 14:34:21.654083+00:00,-0.2608,0.9796,0.1817,-0.0904,0.2418,0.2135,-0.0041,-0.084,0.2227,105.2618,-72.9545,-13.8285,Sit
2025-11-21 14:34:21.754526+00:00,-0.1812,0.9913,0.2188,0.3672,0.3114,0.4816,0.0961,-0.3112,0.1017,103.7618,-73.8266,-12.4447,Sit
2025-11-21 14:34:21.854403+00:00,-0.1997,0.9859,0.19,-0.2031,0.2622,0.1005,0.2903,-0.3772,0.0809,103.5705,-75.2338,-10.962,Sit
2025-11-21 14:34:21.954583+00:00,-0.1768,1.0314,0.1416,0.0791,0.474,-0.0788,0.1022,-0.2453,0.0199,105.6678,-76.1695,-10.6208,Sit
2025-11-21 14:34:22.054734+00:00,-0.1279,0.9698,0.1167,0.2187,0.0496,-0.222,0.2903,-0.2245,0.026,106.8402,-77.2324,-10.0299,Sit
2025-11-21 14:34:22.155251+00:00,-0.2349,0.9435,0.1568,-0.7522,-0.1155,0.3452,0.1327,-0.095,0.0089,106.4103,-77.9862,-9.51,Sit
2025-11-21 14:34:22.254961+00:00,-0.1992,0.9405,0.1318,-0.2564,-0.3279,-0.1276,0.0264,0.329,-0.1487,106.7883,-77.8138,-10.0359,Sit
2025-11-21 14:34:22.355117+00:00,-0.1465,0.9078,0.082,0.4479,-0.542,-0.3009,-0.2106,0.0724,0.0443,106.9351,-76.7147,-11.2274,Sit
2025-11-21 14:34:22.455225+00:00,-0.1655,0.9371,0.1279,0.1442,-0.1751,-0.168,-0.1055,0.1555,0.1274,104.8682,-76.9762,-10.653,Sit
2025-11-21 14:34:22.555328+00:00,-0.1485,0.9723,0.1524,0.161,0.1008,0.2316,-0.1251,-0.106,0.0577,103.0365,-77.0113,-10.1244,Sit
2025-11-21 14:34:22.655580+00:00,-0.127,0.9513,0.1084,0.3572,-0.1396,-0.3883,-0.141,0.0993,0.0199,101.8906,-76.7186,-9.6534,Sit
2025-11-21 14:34:22.755985+00:00,-0.1597,0.9718,0.1729,-0.0179,0.1308,0.3123,0.1144,0.0345,-0.0119,101.6802,-76.6832,-9.7941,Sit
2025-11-21 14:34:22.856198+00:00,-0.1802,0.9811,0.1646,-0.1779,0.1581,0.0877,0.0753,0.2214,-0.0925,101.3977,-76.9649,-9.6856,Sit
2025-11-21 14:34:22.956426+00:00,-0.1572,0.9503,0.1387,0.0647,-0.2272,-0.0913,-0.031,-0.0657,0.0223,101.6601,-77.1563,-9.8302,Sit
2025-11-21 14:34:23.056296+00:00,-0.1494,0.9728,0.1074,0.2644,0.1543,-0.362,-0.1116,0.0186,0.0382,101.622,-77.0003,-9.8477,Sit
2025-11-21 14:34:23.156528+00:00,-0.1387,0.9337,0.106,0.2067,-0.3144,-0.3712,0.0631,-0.0559,0.0541,101.2312,-77.3142,-9.7758,Sit
2025-11-21 14:34:23.256612+00:00,-0.145,0.9664,0.1265,0.0033,0.0206,-0.0273,0.0655,0.0272,0.015,100.984,-77.6284,-9.2974,Sit
2025-11-21 14:34:23.356832+00:00,-0.1572,0.9742,0.1362,-0.0043,-0.0604,-0.2753,-0.0664,-0.0156,-0.0901,101.4422,-77.5756,-9.5137,Sit
2025-11-21 14:34:23.457167+00:00,-0.1621,0.9439,0.1235,0.0584,-0.231,-0.1454,0.002,-0.0901,-0.04,102.0277,-77.4503,-9.7485,Sit
2025-11-21 14:34:23.557203+00:00,-0.1499,0.9767,0.1333,0.2508,0.182,-0.0136,-0.0542,-0.0302,-0.1145,103.0135,-76.7454,-10.5435,Sit
2025-11-21 14:34:23.657254+00:00,-0.1988,0.9703,0.167,-0.2252,0.0071,0.1206,0.0997,-0.018,-0.0339,103.1282,-76.6466,-10.6284,Sit
2025-11-21 14:34:23.757449+00:00,-0.1768,0.9708,0.1406,0.1668,0.044,-0.0755,-0.0432,0.0846,-0.0791,103.716,-76.2601,-11.0694,Sit
2025-11-21 14:34:23.857554+00:00,-0.2139,0.9713,0.1377,-0.1836,-0.0287,-0.0206,-0.0444,0.0467,-0.0535,104.1308,-76.1424,-11.3052,Sit
2025-11-21 14:34:23.957864+00:00,-0.1841,0.9591,0.1582,0.1054,-0.1376,0.166,0.0276,0.0724,-0.0449,104.6865,-75.5918,-11.9453,Sit
2025-11-21 14:34:24.058158+00:00,-0.1817,0.9532,0.1358,0.2851,-0.1291,-0.0942,0.0521,-0.2196,0.0993,103.8516,-75.9896,-11.6355,Sit
2025-11-21 14:34:24.158438+00:00,-0.166,0.9591,0.0855,0.1522,-0.0346,-0.5213,-0.0701,-0.15,-0.051,103.5394,-75.9524,-11.374,Sit
2025-11-21 14:34:24.258693+00:00,-0.1875,1.0318,0.1602,-0.1241,0.4036,0.0631,0.3184,-0.3283,0.1616,103.706,-76.5794,-10.7598,Sit
2025-11-21 14:34:24.359356+00:00,-0.1773,0.901,0.0728,-0.1139,-0.7597,-0.3186,0.217,-0.1414,0.1921,104.4009,-78.3208,-9.5827,Sit
2025-11-21 14:34:24.459570+00:00,-0.148,0.9903,0.1426,0.1427,0.2358,0.1719,0.1095,0.0797,-0.0327,105.0461,-78.5583,-9.7769,Sit
2025-11-21 14:34:24.559973+00:00,-0.1397,0.9806,0.1528,0.1482,-0.0506,0.5293,0.25,-0.3235,0.1933,104.582,-79.251,-9.0568,Sit
2025-11-21 14:34:24.660005+00:00,-0.1211,0.9693,0.0918,0.2543,-0.0779,0.2266,0.2634,-0.3418,0.0443,106.5225,-81.4084,-7.6722,Sit
2025-11-21 14:34:24.760213+00:00,-0.1499,1.0206,0.1289,-0.3106,0.4117,0.597,0.2561,0.0944,0.087,105.8744,-81.5837,-7.4204,Sit
2025-11-21 14:34:24.860305+00:00,-0.1402,1.068,0.0615,-0.1749,0.7728,0.0963,-0.0273,0.1164,0.1555,104.4283,-82.2633,-6.9937,Sit
2025-11-21 14:34:24.960529+00:00,-0.1353,0.9825,0.0845,0.0251,-0.0212,0.3078,0.1584,-0.1915,0.0626,105.0404,-82.2059,-7.2336,Sit
2025-11-21 14:34:25.060791+00:00,-0.0884,1.006,-0.0132,0.3602,0.384,-0.3927,-0.042,-0.3625,-0.1915,107.2135,-82.2882,-7.3331,Sit
2025-11-21 14:34:25.160887+00:00,-0.1441,0.984,0.0606,-0.1794,-0.0958,0.0057,-0.2326,0.0247,0.0504,108.7533,-81.795,-7.4785,Sit
2025-11-21 14:34:25.261215+00:00,-0.1118,1.0079,0.1079,0.2111,0.2374,0.4291,0.1901,0.1665,0.0076,108.4101,-81.6644,-7.66,Sit
2025-11-21 14:34:25.361085+00:00,-0.1118,0.9781,0.106,0.2495,0.0353,0.5923,0.0765,-0.117,-0.0632,108.6981,-81.7455,-7.7619,Sit
2025-11-21 14:34:25.461419+00:00,-0.1206,0.9972,0.0527,0.2272,0.0992,0.1032,0.0411,-0.0706,-0.0718,110.0239,-81.6316,-7.9392,Sit
2025-11-21 14:34:25.561659+00:00,-0.1265,0.9688,0.0039,0.1596,0.0433,-0.3095,-0.1581,0.1188,-0.0498,110.3866,-81.5447,-8.0512,Sit
2025-11-21 14:34:25.661649+00:00,-0.1465,0.9859,0.0225,0.0523,0.095,-0.1129,-0.0334,0.4939,-0.3125,110.5064,-80.7935,-8.8263,Sit
2025-11-21 14:34:25.762207+00:00,-0.2061,0.9435,0.0288,-0.4275,-0.4464,-0.3721,-0.4403,-0.051,-0.1084,111.6662,-80.011,-9.6914,Sit
2025-11-21 14:34:25.862122+00:00,-0.1929,0.9762,0.0601,0.0152,0.0967,-0.1869,-0.0102,0.0382,-0.0974,111.6089,-78.5511,-10.6367,Sit
2025-11-21 14:34:25.962371+00:00,-0.1929,0.9571,0.0737,-0.0138,-0.164,-0.0206,-0.053,0.098,-0.1463,111.7241,-77.9053,-11.2735,Sit
2025-11-21 14:34:26.062521+00:00,-0.1934,0.9767,0.0894,-0.01,0.0805,0.1345,0.0008,-0.1243,-0.0034,111.9123,-77.5675,-11.5007,Sit
2025-11-21 14:34:26.162739+00:00,-0.1865,0.961,0.0581,0.1844,-0.0776,-0.3011,-0.031,0.0455,-0.0339,112.1514,-77.3145,-11.6309,Sit
2025-11-21 14:34:26.263026+00:00,-0.2202,0.9781,0.0879,-0.1265,0.0993,-0.0317,-0.042,-0.018,-0.0192,112.4642,-77.3192,-11.6615,Sit
2025-11-21 14:34:26.363102+00:00,-0.1929,0.9571,0.0713,0.2353,-0.0334,0.1004,0.0057,-0.0461,0.0064,112.9195,-77.163,-11.8507,Sit
2025-11-21 14:34:26.463222+00:00,-0.2139,0.9752,0.0874,-0.1917,0.0468,-0.0795,-0.0249,0.0137,0.0211,112.7079,-77.2594,-11.7104,Sit
2025-11-21 14:34:26.563614+00:00,-0.1968,0.9669,0.0762,0.0494,0.0267,-0.1353,-0.0237,-0.018,0.0015,112.706,-77.3054,-11.6761,Sit
2025-11-21 14:34:26.663853+00:00,-0.1958,0.9698,0.0923,0.0699,0.0504,0.0823,0.0338,-0.0205,0.0113,112.7359,-77.2976,-11.7064,Sit
2025-11-21 14:34:26.764832+00:00,-0.1983,0.9708,0.0879,0.0362,0.006,-0.184,-0.0188,0.0125,0.0101,112.6901,-77.3567,-11.6486,Sit
2025-11-21 14:34:26.864859+00:00,-0.1963,0.9518,0.0742,-0.0147,-0.1669,-0.1418,-0.0347,0.0272,-0.0034,112.419,-77.5408,-11.4773,Sit
2025-11-21 14:34:26.965247+00:00,-0.189,0.9728,0.085,0.0625,0.0359,-0.0871,-0.031,0.0247,0.0076,112.433,-77.4801,-11.5641,Sit
2025-11-21 14:34:27.065448+00:00,-0.1729,0.9435,0.0698,0.1583,-0.2482,0.0318,0.002,0.0027,-0.0168,112.3092,-77.5082,-11.5373,Sit
2025-11-21 14:34:27.165654+00:00,-0.2212,0.943,0.0776,-0.1957,-0.1442,0.0029,0.0044,0.004,-0.018,112.5823,-77.4607,-11.5066,Sit
2025-11-21 14:34:27.265921+00:00,-0.2017,0.962,0.0757,0.0137,-0.0936,-0.1207,-0.0298,0.0822,0.0883,112.1778,-77.321,-11.6927,Sit
2025-11-21 14:34:27.365988+00:00,-0.23,0.9757,0.0869,-0.4047,0.0931,-0.0018,0.1938,0.0406,0.0858,111.7873,-77.9783,-11.2746,Sit
2025-11-21 14:34:27.467121+00:00,-0.1992,0.9571,0.124,-0.1727,0.0174,0.7851,0.3722,0.0626,-0.0205,112.414,-78.4215,-11.1996,Sit
2025-11-21 14:34:27.566891+00:00,-0.1582,0.8839,0.0635,0.3157,-0.5877,0.1637,0.1877,-0.1952,-0.0217,114.1678,-78.2451,-11.6002,Sit
2025-11-21 14:34:27.667262+00:00,-0.2051,0.9361,0.0537,-0.1586,-0.3902,0.5042,0.1779,-0.139,0.1958,114.2709,-79.5529,-10.3418,Sit
2025-11-21 14:34:27.767112+00:00,-0.1763,1.0299,0.041,-0.2673,0.4953,0.1477,0.454,-0.0962,0.3644,113.7896,-80.8068,-9.1382,Sit
2025-11-21 14:34:27.867342+00:00,-0.0542,1.0255,-0.0308,0.8046,0.6057,0.0474,0.3038,0.109,-0.0144,114.238,-98.4835,-8.3092,Sit
2025-11-21 14:34:27.967777+00:00,-0.0967,0.9635,-0.0659,0.2782,-0.0709,0.076,0.2866,-0.04,0.0064,113.2775,-98.3273,-7.6756,Sit
2025-11-21 14:34:28.068037+00:00,-0.1944,0.9439,-0.082,-0.3861,-0.3946,0.2743,0.1877,0.1127,0.1115,113.6417,-98.6611,-7.3883,Sit
2025-11-21 14:34:28.167979+00:00,-0.0913,1.0025,-0.1494,0.5253,0.2648,-0.2538,0.5469,-0.0046,0.0638,112.5742,-99.8229,-7.1698,Sit
2025-11-21 14:34:28.268396+00:00,-0.0713,0.9889,-0.187,0.3961,0.0775,-0.38,0.3526,-0.0156,0.0186,112.1002,-101.6596,-6.8554,Sit
2025-11-21 14:34:28.368221+00:00,-0.1387,1.0133,-0.2036,-0.1185,0.2673,-0.4257,0.2121,-0.2001,0.1078,111.7083,-102.9718,-6.6223,Sit
2025-11-21 14:34:28.468554+00:00,-0.0278,0.9615,-0.1655,0.6622,-0.0354,0.3066,0.0484,-0.1842,0.1591,111.8645,-103.4109,-5.9298,Sit
2025-11-21 14:34:28.568948+00:00,-0.0674,0.984,-0.336,0.2705,0.4005,-1.2104,-0.1153,0.3803,0.12,107.6417,-102.9987,-3.8663,Sit
2025-11-21 14:34:28.669189+00:00,-0.0098,1.003,-0.0293,0.8915,0.1842,1.6833,0.4479,-0.806,-0.6387,109.5708,-102.8203,-4.4735,Sit
2025-11-21 14:34:28.769491+00:00,-0.3086,0.8541,-0.5113,-2.0596,-0.8967,-2.1703,-0.0139,0.9911,0.1481,115.315,-107.5209,-7.469,Sit
2025-11-21 14:34:28.869451+00:00,-0.0479,0.9376,-0.1797,0.6369,0.0317,1.0422,0.3025,-0.4224,0.142,112.1676,-107.2534,-5.8623,Sit
2025-11-21 14:34:28.969885+00:00,-0.1167,1.0509,-0.3018,-0.1388,1.0892,0.4312,0.9476,-0.5299,0.1762,115.4669,-110.0302,-6.1301,Sit
2025-11-21 14:34:29.069915+00:00,-0.063,0.9015,-0.4859,0.3964,-0.1149,-0.8491,0.6544,-0.4407,0.164,117.1467,-114.6153,-6.0326,Sit
2025-11-21 14:34:29.170267+00:00,-0.0957,0.8756,-0.4229,-0.0778,-0.0686,0.1946,0.6141,-0.2526,0.219,118.3957,-117.5324,-5.913,Sit
2025-11-21 14:34:29.270499+00:00,-0.0728,0.8775,-0.6173,0.2479,0.4262,-0.8317,1.0771,-1.1506,0.2581,123.1499,-122.1312,-6.6792,Sit
2025-11-21 14:34:29.370684+00:00,-0.1421,0.8155,-0.6329,0.2104,0.2665,-0.4386,0.7301,-1.1383,0.0418,135.8927,-127.4268,-11.0764,Sit
2025-11-21 14:34:29.470857+00:00,-0.1895,0.7774,-0.6358,0.1487,0.1938,-0.0715,0.4699,-0.6607,0.0553,144.5787,-130.3702,-18.0064,Sit
2025-11-21 14:34:29.571160+00:00,-0.2046,0.732,-0.6856,0.2599,0.013,-0.5411,0.2243,-0.5214,0.0516,151.7721,-132.3252,-20.5378,Sit
2025-11-21 14:34:29.671203+00:00,-0.2373,0.7237,-0.6509,0.1777,-0.0113,-0.1095,0.1278,-0.1915,-0.0266,155.7744,-133.1705,-22.1023,Sit
2025-11-21 14:34:29.771514+00:00,-0.2715,0.7095,-0.6422,-0.0017,-0.089,0.1247,0.14,-0.018,-0.0376,157.6243,-134.0029,-22.8737,Sit
2025-11-21 14:34:29.871401+00:00,-0.2583,0.7125,-0.6475,0.0578,-0.0301,0.0076,-0.0102,0.1738,0.0247,156.534,-134.3489,-22.1149,Sit
2025-11-21 14:34:29.971586+00:00,-0.2344,0.7354,-0.7022,0.2212,0.2366,-0.5028,0.1303,-0.1634,0.0027,155.2229,-134.6134,-21.1519,Sit
2025-11-21 14:34:30.071897+00:00,-0.271,0.7237,-0.7061,0.0075,0.2275,-0.4113,0.1022,-0.2392,-0.0376,156.4002,-135.2001,-21.5266,Sit
2025-11-21 14:34:30.172004+00:00,-0.25,0.7008,-0.6539,0.2486,0.0288,0.073,0.1168,-0.2306,0.0467,158.7447,-135.6833,-22.4421,Sit
2025-11-21 14:34:30.272216+00:00,-0.294,0.6876,-0.6763,-0.1671,-0.1371,-0.0244,0.0521,-0.0278,0.0394,159.9133,-136.0786,-22.6842,Sit
2025-11-21 14:34:30.372615+00:00,-0.2852,0.6695,-0.7174,-0.0507,-0.2578,-0.5166,-0.141,-0.0278,0.048,159.9212,-136.1548,-22.3742,Sit
2025-11-21 14:34:30.472542+00:00,-0.2788,0.7305,-0.6788,0.0594,0.2113,-0.2229,-0.0603,-0.4004,0.0406,161.8474,-135.6313,-23.3973,Sit
2025-11-21 14:34:30.572784+00:00,-0.294,0.7213,-0.608,0.2316,0.1601,0.3404,0.0838,-0.5507,0.0431,166.7411,-135.1882,-25.8034,Sit
2025-11-21 14:34:30.674956+00:00,-0.3257,0.6627,-0.6319,0.1426,-0.4088,0.0534,0.0557,-0.2367,0.015,171.8919,-135.4287,-28.0559,Sit
2025-11-21 14:34:30.773185+00:00,-0.3374,0.6959,-0.6182,0.0126,-0.0887,0.1479,0.0044,0.0406,-0.0278,172.5512,-135.5286,-28.4083,Sit
2025-11-21 14:34:30.873383+00:00,-0.3579,0.7047,-0.6417,-0.1701,-0.0658,-0.1028,-0.0896,0.048,0.0602,172.205,-135.3748,-28.2885,Sit
2025-11-21 14:34:30.973433+00:00,-0.3203,0.7247,-0.6236,0.1139,0.0317,-0.0132,-0.0994,-0.1646,0.1127,172.4144,-134.8155,-28.2444,Sit
2025-11-21 14:34:31.073578+00:00,-0.312,0.7354,-0.5899,0.2524,0.0887,0.2378,-0.0774,-0.1219,0.1078,173.3302,-133.8643,-28.6114,Sit
2025-11-21 14:34:31.173940+00:00,-0.3316,0.7242,-0.6011,-0.0014,-0.0989,0.0149,-0.0163,-0.0412,0.0589,173.5701,-133.1806,-28.6713,Sit
2025-11-21 14:34:31.274058+00:00,-0.3174,0.7086,-0.5337,-0.0039,-0.2496,0.6953,0.0753,0.4658,0.1323,172.5473,-133.0753,-27.8652,Sit
2025-11-21 14:34:31.374279+00:00,-0.2183,0.7008,-0.5552,0.239,-0.3253,0.8242,0.3905,1.1304,0.3399,162.7778,-132.9784,-21.7807,Sit
2025-11-21 14:34:31.474288+00:00,-0.0532,0.6749,-0.7061,0.8688,-0.0801,-0.0973,0.7619,0.7957,0.1396,148.9319,-135.3327,-12.8024,Sit
2025-11-21 14:34:31.574680+00:00,-0.062,0.6417,-0.8038,0.5515,-0.123,-1.1506,0.1352,0.1872,-0.0742,141.5493,-138.3212,-8.6962,Sit
2025-11-21 14:34:31.677525+00:00,-0.04,0.6324,-0.7447,0.7009,-0.1065,0.0725,0.2561,0.1249,-0.1585,139.4317,-139.4986,-7.8097,Sit
2025-11-21 14:34:31.774996+00:00,-0.1035,0.6299,-0.8741,-0.0946,0.0977,-1.0168,0.0606,0.0993,-0.073,137.6924,-140.8251,-7.3816,Sit
2025-11-21 14:34:31.875170+00:00,-0.1065,0.6168,-0.7686,-0.0666,-0.1242,-0.1054,-0.0493,0.0223,-0.04,137.453,-140.6147,-7.4111,Sit
2025-11-21 14:34:31.975542+00:00,-0.1045,0.6402,-0.7843,-0.0884,0.0557,-0.1705,-0.0102,0.0748,-0.018,137.5053,-140.6378,-7.5772,Sit
